#
# Results on Wednesday October 30 2019 20:12:49 UTC.
# USER AGENT: Mozilla/5.0 (Windows NT 10.0; Win64; x64) AppleWebKit/537.36 (KHTML, like Gecko) Chrome/78.0.3904.70 Safari/537.36
# Design number was non-random = 36
#
# Columns below this comment are as follows:
# 1. Time results were received.
# 2. MD5 hash of participant's IP address.
# 3. Controller name.
# 4. Item number.
# 5. Element number.
# 6. Type.
# 7. Group.
# 8. PennElementType.
# 9. PennElementName.
# 10. Parameter.
# 11. Value.
# 12. EventTime.
# 13. Comments.
1572466369,2ada59a85745553b0092a01595a5143e,PennController,20,0,instructions,NULL,PennController,0,_Trial_,Start,1572465976172,NULL
1572466369,2ada59a85745553b0092a01595a5143e,PennController,20,0,instructions,NULL,PennController,0,_Header_,Start,1572465976172,NULL
1572466369,2ada59a85745553b0092a01595a5143e,PennController,20,0,instructions,NULL,PennController,0,_Header_,End,1572465976179,NULL
1572466369,2ada59a85745553b0092a01595a5143e,PennController,20,0,instructions,NULL,PennController,0,_Trial_,End,1572465977912,NULL
# Columns below this comment are as follows:
# 1. Time results were received.
# 2. MD5 hash of participant's IP address.
# 3. Controller name.
# 4. Item number.
# 5. Element number.
# 6. Type.
# 7. Group.
# 8. PennElementType.
# 9. PennElementName.
# 10. Parameter.
# 11. Value.
# 12. EventTime.
# 13. id.
# 14. Comments.
1572466369,2ada59a85745553b0092a01595a5143e,PennController,21,0,instructions,NULL,PennController,1,_Trial_,Start,1572465977916,5cc723e6ee8e8d0016bc687d,NULL
1572466369,2ada59a85745553b0092a01595a5143e,PennController,21,0,instructions,NULL,PennController,1,_Header_,Start,1572465977916,5cc723e6ee8e8d0016bc687d,NULL
1572466369,2ada59a85745553b0092a01595a5143e,PennController,21,0,instructions,NULL,PennController,1,_Header_,End,1572465977916,5cc723e6ee8e8d0016bc687d,NULL
1572466369,2ada59a85745553b0092a01595a5143e,PennController,21,0,instructions,NULL,Scale,levels,Choice,NA,Never,5cc723e6ee8e8d0016bc687d,No selection happened
1572466369,2ada59a85745553b0092a01595a5143e,PennController,21,0,instructions,NULL,PennController,1,_Trial_,End,1572465993425,5cc723e6ee8e8d0016bc687d,NULL
1572466369,2ada59a85745553b0092a01595a5143e,PennController,22,0,instructions,NULL,PennController,2,_Trial_,Start,1572465993427,5cc723e6ee8e8d0016bc687d,NULL
1572466369,2ada59a85745553b0092a01595a5143e,PennController,22,0,instructions,NULL,PennController,2,_Header_,Start,1572465993427,5cc723e6ee8e8d0016bc687d,NULL
1572466369,2ada59a85745553b0092a01595a5143e,PennController,22,0,instructions,NULL,PennController,2,_Header_,End,1572465993427,5cc723e6ee8e8d0016bc687d,NULL
1572466369,2ada59a85745553b0092a01595a5143e,PennController,22,0,instructions,NULL,PennController,2,_Trial_,End,1572466005300,5cc723e6ee8e8d0016bc687d,NULL
1572466369,2ada59a85745553b0092a01595a5143e,PennController,26,0,intro,NULL,PennController,25,_Trial_,Start,1572466005302,5cc723e6ee8e8d0016bc687d,NULL
1572466369,2ada59a85745553b0092a01595a5143e,PennController,26,0,intro,NULL,PennController,25,_Header_,Start,1572466005302,5cc723e6ee8e8d0016bc687d,NULL
1572466369,2ada59a85745553b0092a01595a5143e,PennController,26,0,intro,NULL,PennController,25,_Header_,End,1572466005302,5cc723e6ee8e8d0016bc687d,NULL
1572466369,2ada59a85745553b0092a01595a5143e,PennController,26,0,intro,NULL,PennController,25,_Trial_,End,1572466017165,5cc723e6ee8e8d0016bc687d,NULL
# Columns below this comment are as follows:
# 1. Time results were received.
# 2. MD5 hash of participant's IP address.
# 3. Controller name.
# 4. Item number.
# 5. Element number.
# 6. Type.
# 7. Group.
# 8. PennElementType.
# 9. PennElementName.
# 10. Parameter.
# 11. Value.
# 12. EventTime.
# 13. id.
# 14. MinAdj.
# 15. MinLevel.
# 16. MidAdj.
# 17. MidLevel.
# 18. MaxAdj.
# 19. MaxLevel.
# 20. Form.
# 21. Force.
# 22. Level.
# 23. Tested.
# 24. Comments.
1572466369,2ada59a85745553b0092a01595a5143e,PennController,0,0,demo-Bathtub,NULL,PennController,5,_Trial_,Start,1572466017168,5cc723e6ee8e8d0016bc687d,Cold,25,Warm,58,Hot,75,comparative,Mid,66,WARMER,NULL
1572466369,2ada59a85745553b0092a01595a5143e,PennController,0,0,demo-Bathtub,NULL,PennController,5,_Header_,Start,1572466017168,5cc723e6ee8e8d0016bc687d,Cold,25,Warm,58,Hot,75,comparative,Mid,66,WARMER,NULL
1572466369,2ada59a85745553b0092a01595a5143e,PennController,0,0,demo-Bathtub,NULL,PennController,5,_Header_,End,1572466017168,5cc723e6ee8e8d0016bc687d,Cold,25,Warm,58,Hot,75,comparative,Mid,66,WARMER,NULL
1572466369,2ada59a85745553b0092a01595a5143e,PennController,0,0,demo-Bathtub,NULL,Scale,levels,Choice,NA,Never,5cc723e6ee8e8d0016bc687d,Cold,25,Warm,58,Hot,75,comparative,Mid,66,WARMER,No selection happened
1572466369,2ada59a85745553b0092a01595a5143e,PennController,0,0,demo-Bathtub,NULL,PennController,5,_Trial_,End,1572466038312,5cc723e6ee8e8d0016bc687d,Cold,25,Warm,58,Hot,75,comparative,Mid,66,WARMER,NULL
1572466369,2ada59a85745553b0092a01595a5143e,PennController,27,0,practice-Bathtub,NULL,PennController,26,_Trial_,Start,1572466038314,5cc723e6ee8e8d0016bc687d,Cold,25,Warm,58,Hot,75,comparative,Mid,66,WARMER,NULL
1572466369,2ada59a85745553b0092a01595a5143e,PennController,27,0,practice-Bathtub,NULL,PennController,26,_Header_,Start,1572466038314,5cc723e6ee8e8d0016bc687d,Cold,25,Warm,58,Hot,75,comparative,Mid,66,WARMER,NULL
1572466369,2ada59a85745553b0092a01595a5143e,PennController,27,0,practice-Bathtub,NULL,PennController,26,_Header_,End,1572466038315,5cc723e6ee8e8d0016bc687d,Cold,25,Warm,58,Hot,75,comparative,Mid,66,WARMER,NULL
1572466369,2ada59a85745553b0092a01595a5143e,PennController,27,0,practice-Bathtub,NULL,Scale,levels,Choice,60,1572466049015,5cc723e6ee8e8d0016bc687d,Cold,25,Warm,58,Hot,75,comparative,Mid,66,WARMER,NULL
1572466369,2ada59a85745553b0092a01595a5143e,PennController,27,0,practice-Bathtub,NULL,Var,errors,Final,0,1572466050840,5cc723e6ee8e8d0016bc687d,Cold,25,Warm,58,Hot,75,comparative,Mid,66,WARMER,Value at the end of the trial
1572466369,2ada59a85745553b0092a01595a5143e,PennController,27,0,practice-Bathtub,NULL,PennController,26,_Trial_,End,1572466050840,5cc723e6ee8e8d0016bc687d,Cold,25,Warm,58,Hot,75,comparative,Mid,66,WARMER,NULL
1572466369,2ada59a85745553b0092a01595a5143e,PennController,28,0,practice-Bathtub,NULL,PennController,27,_Trial_,Start,1572466050842,5cc723e6ee8e8d0016bc687d,Cold,25,Warm,58,Hot,75,comparative,Max,83,HOTTER,NULL
1572466369,2ada59a85745553b0092a01595a5143e,PennController,28,0,practice-Bathtub,NULL,PennController,27,_Header_,Start,1572466050842,5cc723e6ee8e8d0016bc687d,Cold,25,Warm,58,Hot,75,comparative,Max,83,HOTTER,NULL
1572466369,2ada59a85745553b0092a01595a5143e,PennController,28,0,practice-Bathtub,NULL,PennController,27,_Header_,End,1572466050843,5cc723e6ee8e8d0016bc687d,Cold,25,Warm,58,Hot,75,comparative,Max,83,HOTTER,NULL
1572466369,2ada59a85745553b0092a01595a5143e,PennController,28,0,practice-Bathtub,NULL,Scale,levels,Choice,77,1572466062688,5cc723e6ee8e8d0016bc687d,Cold,25,Warm,58,Hot,75,comparative,Max,83,HOTTER,NULL
1572466369,2ada59a85745553b0092a01595a5143e,PennController,28,0,practice-Bathtub,NULL,Var,errors,Final,1,1572466065368,5cc723e6ee8e8d0016bc687d,Cold,25,Warm,58,Hot,75,comparative,Max,83,HOTTER,Value at the end of the trial
1572466369,2ada59a85745553b0092a01595a5143e,PennController,28,0,practice-Bathtub,NULL,PennController,27,_Trial_,End,1572466065368,5cc723e6ee8e8d0016bc687d,Cold,25,Warm,58,Hot,75,comparative,Max,83,HOTTER,NULL
1572466369,2ada59a85745553b0092a01595a5143e,PennController,28,0,practice-Bathtub,NULL,PennController,27,_Trial_,Start,1572466065371,5cc723e6ee8e8d0016bc687d,Cold,25,Warm,58,Hot,75,comparative,Max,83,HOTTER,NULL
1572466369,2ada59a85745553b0092a01595a5143e,PennController,28,0,practice-Bathtub,NULL,PennController,27,_Header_,Start,1572466065371,5cc723e6ee8e8d0016bc687d,Cold,25,Warm,58,Hot,75,comparative,Max,83,HOTTER,NULL
1572466369,2ada59a85745553b0092a01595a5143e,PennController,28,0,practice-Bathtub,NULL,PennController,27,_Header_,End,1572466065372,5cc723e6ee8e8d0016bc687d,Cold,25,Warm,58,Hot,75,comparative,Max,83,HOTTER,NULL
1572466369,2ada59a85745553b0092a01595a5143e,PennController,28,0,practice-Bathtub,NULL,Scale,levels,Choice,77,1572466069985,5cc723e6ee8e8d0016bc687d,Cold,25,Warm,58,Hot,75,comparative,Max,83,HOTTER,NULL
1572466369,2ada59a85745553b0092a01595a5143e,PennController,28,0,practice-Bathtub,NULL,Var,errors,Final,0,1572466073583,5cc723e6ee8e8d0016bc687d,Cold,25,Warm,58,Hot,75,comparative,Max,83,HOTTER,Value at the end of the trial
1572466369,2ada59a85745553b0092a01595a5143e,PennController,28,0,practice-Bathtub,NULL,PennController,27,_Trial_,End,1572466073584,5cc723e6ee8e8d0016bc687d,Cold,25,Warm,58,Hot,75,comparative,Max,83,HOTTER,NULL
1572466369,2ada59a85745553b0092a01595a5143e,PennController,27,0,practice-Bathtub,NULL,PennController,26,_Trial_,Start,1572466073585,5cc723e6ee8e8d0016bc687d,Cold,25,Warm,58,Hot,75,comparative,Mid,66,WARMER,NULL
1572466369,2ada59a85745553b0092a01595a5143e,PennController,27,0,practice-Bathtub,NULL,PennController,26,_Header_,Start,1572466073585,5cc723e6ee8e8d0016bc687d,Cold,25,Warm,58,Hot,75,comparative,Mid,66,WARMER,NULL
1572466369,2ada59a85745553b0092a01595a5143e,PennController,27,0,practice-Bathtub,NULL,PennController,26,_Header_,End,1572466073586,5cc723e6ee8e8d0016bc687d,Cold,25,Warm,58,Hot,75,comparative,Mid,66,WARMER,NULL
1572466369,2ada59a85745553b0092a01595a5143e,PennController,27,0,practice-Bathtub,NULL,Scale,levels,Choice,60,1572466078160,5cc723e6ee8e8d0016bc687d,Cold,25,Warm,58,Hot,75,comparative,Mid,66,WARMER,NULL
1572466369,2ada59a85745553b0092a01595a5143e,PennController,27,0,practice-Bathtub,NULL,Var,errors,Final,0,1572466079826,5cc723e6ee8e8d0016bc687d,Cold,25,Warm,58,Hot,75,comparative,Mid,66,WARMER,Value at the end of the trial
1572466369,2ada59a85745553b0092a01595a5143e,PennController,27,0,practice-Bathtub,NULL,PennController,26,_Trial_,End,1572466079828,5cc723e6ee8e8d0016bc687d,Cold,25,Warm,58,Hot,75,comparative,Mid,66,WARMER,NULL
1572466369,2ada59a85745553b0092a01595a5143e,PennController,4,0,input-Bathtub,NULL,PennController,9,_Trial_,Start,1572466079829,5cc723e6ee8e8d0016bc687d,Cold,25,Warm,58,Hot,75,comparative,Mid,66,WARMER,NULL
1572466369,2ada59a85745553b0092a01595a5143e,PennController,4,0,input-Bathtub,NULL,PennController,9,_Header_,Start,1572466079829,5cc723e6ee8e8d0016bc687d,Cold,25,Warm,58,Hot,75,comparative,Mid,66,WARMER,NULL
1572466369,2ada59a85745553b0092a01595a5143e,PennController,4,0,input-Bathtub,NULL,PennController,9,_Header_,End,1572466079830,5cc723e6ee8e8d0016bc687d,Cold,25,Warm,58,Hot,75,comparative,Mid,66,WARMER,NULL
1572466369,2ada59a85745553b0092a01595a5143e,PennController,4,0,input-Bathtub,NULL,Scale,levels,Choice,67,1572466091342,5cc723e6ee8e8d0016bc687d,Cold,25,Warm,58,Hot,75,comparative,Mid,66,WARMER,NULL
1572466369,2ada59a85745553b0092a01595a5143e,PennController,4,0,input-Bathtub,NULL,Scale,levels,Choice,68,1572466091396,5cc723e6ee8e8d0016bc687d,Cold,25,Warm,58,Hot,75,comparative,Mid,66,WARMER,NULL
1572466369,2ada59a85745553b0092a01595a5143e,PennController,4,0,input-Bathtub,NULL,Scale,levels,Choice,69,1572466091521,5cc723e6ee8e8d0016bc687d,Cold,25,Warm,58,Hot,75,comparative,Mid,66,WARMER,NULL
1572466369,2ada59a85745553b0092a01595a5143e,PennController,4,0,input-Bathtub,NULL,Scale,levels,Choice,70,1572466091757,5cc723e6ee8e8d0016bc687d,Cold,25,Warm,58,Hot,75,comparative,Mid,66,WARMER,NULL
1572466369,2ada59a85745553b0092a01595a5143e,PennController,4,0,input-Bathtub,NULL,Scale,levels,Choice,71,1572466091805,5cc723e6ee8e8d0016bc687d,Cold,25,Warm,58,Hot,75,comparative,Mid,66,WARMER,NULL
1572466369,2ada59a85745553b0092a01595a5143e,PennController,4,0,input-Bathtub,NULL,PennController,9,_Trial_,End,1572466095771,5cc723e6ee8e8d0016bc687d,Cold,25,Warm,58,Hot,75,comparative,Mid,66,WARMER,NULL
1572466369,2ada59a85745553b0092a01595a5143e,PennController,7,0,input-Bathtub,NULL,PennController,12,_Trial_,Start,1572466095774,5cc723e6ee8e8d0016bc687d,Cold,25,Warm,58,Hot,75,excessive,Max,83,TOO HOT,NULL
1572466369,2ada59a85745553b0092a01595a5143e,PennController,7,0,input-Bathtub,NULL,PennController,12,_Header_,Start,1572466095774,5cc723e6ee8e8d0016bc687d,Cold,25,Warm,58,Hot,75,excessive,Max,83,TOO HOT,NULL
1572466369,2ada59a85745553b0092a01595a5143e,PennController,7,0,input-Bathtub,NULL,PennController,12,_Header_,End,1572466095774,5cc723e6ee8e8d0016bc687d,Cold,25,Warm,58,Hot,75,excessive,Max,83,TOO HOT,NULL
1572466369,2ada59a85745553b0092a01595a5143e,PennController,7,0,input-Bathtub,NULL,Scale,levels,Choice,84,1572466103965,5cc723e6ee8e8d0016bc687d,Cold,25,Warm,58,Hot,75,excessive,Max,83,TOO HOT,NULL
1572466369,2ada59a85745553b0092a01595a5143e,PennController,7,0,input-Bathtub,NULL,Scale,levels,Choice,83,1572466103986,5cc723e6ee8e8d0016bc687d,Cold,25,Warm,58,Hot,75,excessive,Max,83,TOO HOT,NULL
1572466369,2ada59a85745553b0092a01595a5143e,PennController,7,0,input-Bathtub,NULL,Scale,levels,Choice,82,1572466104013,5cc723e6ee8e8d0016bc687d,Cold,25,Warm,58,Hot,75,excessive,Max,83,TOO HOT,NULL
1572466369,2ada59a85745553b0092a01595a5143e,PennController,7,0,input-Bathtub,NULL,Scale,levels,Choice,81,1572466104042,5cc723e6ee8e8d0016bc687d,Cold,25,Warm,58,Hot,75,excessive,Max,83,TOO HOT,NULL
1572466369,2ada59a85745553b0092a01595a5143e,PennController,7,0,input-Bathtub,NULL,Scale,levels,Choice,80,1572466104056,5cc723e6ee8e8d0016bc687d,Cold,25,Warm,58,Hot,75,excessive,Max,83,TOO HOT,NULL
1572466369,2ada59a85745553b0092a01595a5143e,PennController,7,0,input-Bathtub,NULL,Scale,levels,Choice,79,1572466104077,5cc723e6ee8e8d0016bc687d,Cold,25,Warm,58,Hot,75,excessive,Max,83,TOO HOT,NULL
1572466369,2ada59a85745553b0092a01595a5143e,PennController,7,0,input-Bathtub,NULL,Scale,levels,Choice,78,1572466104152,5cc723e6ee8e8d0016bc687d,Cold,25,Warm,58,Hot,75,excessive,Max,83,TOO HOT,NULL
1572466369,2ada59a85745553b0092a01595a5143e,PennController,7,0,input-Bathtub,NULL,Scale,levels,Choice,77,1572466104215,5cc723e6ee8e8d0016bc687d,Cold,25,Warm,58,Hot,75,excessive,Max,83,TOO HOT,NULL
1572466369,2ada59a85745553b0092a01595a5143e,PennController,7,0,input-Bathtub,NULL,Scale,levels,Choice,76,1572466104249,5cc723e6ee8e8d0016bc687d,Cold,25,Warm,58,Hot,75,excessive,Max,83,TOO HOT,NULL
1572466369,2ada59a85745553b0092a01595a5143e,PennController,7,0,input-Bathtub,NULL,Scale,levels,Choice,75,1572466104271,5cc723e6ee8e8d0016bc687d,Cold,25,Warm,58,Hot,75,excessive,Max,83,TOO HOT,NULL
1572466369,2ada59a85745553b0092a01595a5143e,PennController,7,0,input-Bathtub,NULL,Scale,levels,Choice,74,1572466104291,5cc723e6ee8e8d0016bc687d,Cold,25,Warm,58,Hot,75,excessive,Max,83,TOO HOT,NULL
1572466369,2ada59a85745553b0092a01595a5143e,PennController,7,0,input-Bathtub,NULL,Scale,levels,Choice,73,1572466104305,5cc723e6ee8e8d0016bc687d,Cold,25,Warm,58,Hot,75,excessive,Max,83,TOO HOT,NULL
1572466369,2ada59a85745553b0092a01595a5143e,PennController,7,0,input-Bathtub,NULL,Scale,levels,Choice,72,1572466104452,5cc723e6ee8e8d0016bc687d,Cold,25,Warm,58,Hot,75,excessive,Max,83,TOO HOT,NULL
1572466369,2ada59a85745553b0092a01595a5143e,PennController,7,0,input-Bathtub,NULL,Scale,levels,Choice,71,1572466104506,5cc723e6ee8e8d0016bc687d,Cold,25,Warm,58,Hot,75,excessive,Max,83,TOO HOT,NULL
1572466369,2ada59a85745553b0092a01595a5143e,PennController,7,0,input-Bathtub,NULL,Scale,levels,Choice,70,1572466104535,5cc723e6ee8e8d0016bc687d,Cold,25,Warm,58,Hot,75,excessive,Max,83,TOO HOT,NULL
1572466369,2ada59a85745553b0092a01595a5143e,PennController,7,0,input-Bathtub,NULL,Scale,levels,Choice,69,1572466104556,5cc723e6ee8e8d0016bc687d,Cold,25,Warm,58,Hot,75,excessive,Max,83,TOO HOT,NULL
1572466369,2ada59a85745553b0092a01595a5143e,PennController,7,0,input-Bathtub,NULL,Scale,levels,Choice,68,1572466104638,5cc723e6ee8e8d0016bc687d,Cold,25,Warm,58,Hot,75,excessive,Max,83,TOO HOT,NULL
1572466369,2ada59a85745553b0092a01595a5143e,PennController,7,0,input-Bathtub,NULL,Scale,levels,Choice,67,1572466104777,5cc723e6ee8e8d0016bc687d,Cold,25,Warm,58,Hot,75,excessive,Max,83,TOO HOT,NULL
1572466369,2ada59a85745553b0092a01595a5143e,PennController,7,0,input-Bathtub,NULL,PennController,12,_Trial_,End,1572466108098,5cc723e6ee8e8d0016bc687d,Cold,25,Warm,58,Hot,75,excessive,Max,83,TOO HOT,NULL
1572466369,2ada59a85745553b0092a01595a5143e,PennController,6,0,input-Bathtub,NULL,PennController,11,_Trial_,Start,1572466108100,5cc723e6ee8e8d0016bc687d,Cold,25,Warm,58,Hot,75,excessive,Mid,66,TOO WARM,NULL
1572466369,2ada59a85745553b0092a01595a5143e,PennController,6,0,input-Bathtub,NULL,PennController,11,_Header_,Start,1572466108100,5cc723e6ee8e8d0016bc687d,Cold,25,Warm,58,Hot,75,excessive,Mid,66,TOO WARM,NULL
1572466369,2ada59a85745553b0092a01595a5143e,PennController,6,0,input-Bathtub,NULL,PennController,11,_Header_,End,1572466108101,5cc723e6ee8e8d0016bc687d,Cold,25,Warm,58,Hot,75,excessive,Mid,66,TOO WARM,NULL
1572466369,2ada59a85745553b0092a01595a5143e,PennController,6,0,input-Bathtub,NULL,Scale,levels,Choice,66,1572466115901,5cc723e6ee8e8d0016bc687d,Cold,25,Warm,58,Hot,75,excessive,Mid,66,TOO WARM,NULL
1572466369,2ada59a85745553b0092a01595a5143e,PennController,6,0,input-Bathtub,NULL,Scale,levels,Choice,65,1572466116027,5cc723e6ee8e8d0016bc687d,Cold,25,Warm,58,Hot,75,excessive,Mid,66,TOO WARM,NULL
1572466369,2ada59a85745553b0092a01595a5143e,PennController,6,0,input-Bathtub,NULL,Scale,levels,Choice,64,1572466116055,5cc723e6ee8e8d0016bc687d,Cold,25,Warm,58,Hot,75,excessive,Mid,66,TOO WARM,NULL
1572466369,2ada59a85745553b0092a01595a5143e,PennController,6,0,input-Bathtub,NULL,Scale,levels,Choice,63,1572466116076,5cc723e6ee8e8d0016bc687d,Cold,25,Warm,58,Hot,75,excessive,Mid,66,TOO WARM,NULL
1572466369,2ada59a85745553b0092a01595a5143e,PennController,6,0,input-Bathtub,NULL,Scale,levels,Choice,62,1572466116180,5cc723e6ee8e8d0016bc687d,Cold,25,Warm,58,Hot,75,excessive,Mid,66,TOO WARM,NULL
1572466369,2ada59a85745553b0092a01595a5143e,PennController,6,0,input-Bathtub,NULL,Scale,levels,Choice,61,1572466116235,5cc723e6ee8e8d0016bc687d,Cold,25,Warm,58,Hot,75,excessive,Mid,66,TOO WARM,NULL
1572466369,2ada59a85745553b0092a01595a5143e,PennController,6,0,input-Bathtub,NULL,Scale,levels,Choice,60,1572466116271,5cc723e6ee8e8d0016bc687d,Cold,25,Warm,58,Hot,75,excessive,Mid,66,TOO WARM,NULL
1572466369,2ada59a85745553b0092a01595a5143e,PennController,6,0,input-Bathtub,NULL,Scale,levels,Choice,59,1572466116291,5cc723e6ee8e8d0016bc687d,Cold,25,Warm,58,Hot,75,excessive,Mid,66,TOO WARM,NULL
1572466369,2ada59a85745553b0092a01595a5143e,PennController,6,0,input-Bathtub,NULL,Scale,levels,Choice,58,1572466116299,5cc723e6ee8e8d0016bc687d,Cold,25,Warm,58,Hot,75,excessive,Mid,66,TOO WARM,NULL
1572466369,2ada59a85745553b0092a01595a5143e,PennController,6,0,input-Bathtub,NULL,Scale,levels,Choice,57,1572466116306,5cc723e6ee8e8d0016bc687d,Cold,25,Warm,58,Hot,75,excessive,Mid,66,TOO WARM,NULL
1572466369,2ada59a85745553b0092a01595a5143e,PennController,6,0,input-Bathtub,NULL,Scale,levels,Choice,56,1572466116319,5cc723e6ee8e8d0016bc687d,Cold,25,Warm,58,Hot,75,excessive,Mid,66,TOO WARM,NULL
1572466369,2ada59a85745553b0092a01595a5143e,PennController,6,0,input-Bathtub,NULL,Scale,levels,Choice,55,1572466116395,5cc723e6ee8e8d0016bc687d,Cold,25,Warm,58,Hot,75,excessive,Mid,66,TOO WARM,NULL
1572466369,2ada59a85745553b0092a01595a5143e,PennController,6,0,input-Bathtub,NULL,Scale,levels,Choice,54,1572466116424,5cc723e6ee8e8d0016bc687d,Cold,25,Warm,58,Hot,75,excessive,Mid,66,TOO WARM,NULL
1572466369,2ada59a85745553b0092a01595a5143e,PennController,6,0,input-Bathtub,NULL,Scale,levels,Choice,53,1572466116645,5cc723e6ee8e8d0016bc687d,Cold,25,Warm,58,Hot,75,excessive,Mid,66,TOO WARM,NULL
1572466369,2ada59a85745553b0092a01595a5143e,PennController,6,0,input-Bathtub,NULL,Scale,levels,Choice,52,1572466116659,5cc723e6ee8e8d0016bc687d,Cold,25,Warm,58,Hot,75,excessive,Mid,66,TOO WARM,NULL
1572466369,2ada59a85745553b0092a01595a5143e,PennController,6,0,input-Bathtub,NULL,PennController,11,_Trial_,End,1572466119001,5cc723e6ee8e8d0016bc687d,Cold,25,Warm,58,Hot,75,excessive,Mid,66,TOO WARM,NULL
1572466369,2ada59a85745553b0092a01595a5143e,PennController,5,0,input-Bathtub,NULL,PennController,10,_Trial_,Start,1572466119003,5cc723e6ee8e8d0016bc687d,Cold,25,Warm,58,Hot,75,comparative,Max,83,HOTTER,NULL
1572466369,2ada59a85745553b0092a01595a5143e,PennController,5,0,input-Bathtub,NULL,PennController,10,_Header_,Start,1572466119003,5cc723e6ee8e8d0016bc687d,Cold,25,Warm,58,Hot,75,comparative,Max,83,HOTTER,NULL
1572466369,2ada59a85745553b0092a01595a5143e,PennController,5,0,input-Bathtub,NULL,PennController,10,_Header_,End,1572466119004,5cc723e6ee8e8d0016bc687d,Cold,25,Warm,58,Hot,75,comparative,Max,83,HOTTER,NULL
1572466369,2ada59a85745553b0092a01595a5143e,PennController,5,0,input-Bathtub,NULL,Scale,levels,Choice,84,1572466126917,5cc723e6ee8e8d0016bc687d,Cold,25,Warm,58,Hot,75,comparative,Max,83,HOTTER,NULL
1572466369,2ada59a85745553b0092a01595a5143e,PennController,5,0,input-Bathtub,NULL,Scale,levels,Choice,85,1572466126979,5cc723e6ee8e8d0016bc687d,Cold,25,Warm,58,Hot,75,comparative,Max,83,HOTTER,NULL
1572466369,2ada59a85745553b0092a01595a5143e,PennController,5,0,input-Bathtub,NULL,Scale,levels,Choice,86,1572466127131,5cc723e6ee8e8d0016bc687d,Cold,25,Warm,58,Hot,75,comparative,Max,83,HOTTER,NULL
1572466369,2ada59a85745553b0092a01595a5143e,PennController,5,0,input-Bathtub,NULL,Scale,levels,Choice,87,1572466127264,5cc723e6ee8e8d0016bc687d,Cold,25,Warm,58,Hot,75,comparative,Max,83,HOTTER,NULL
1572466369,2ada59a85745553b0092a01595a5143e,PennController,5,0,input-Bathtub,NULL,Scale,levels,Choice,88,1572466127485,5cc723e6ee8e8d0016bc687d,Cold,25,Warm,58,Hot,75,comparative,Max,83,HOTTER,NULL
1572466369,2ada59a85745553b0092a01595a5143e,PennController,5,0,input-Bathtub,NULL,Scale,levels,Choice,89,1572466127730,5cc723e6ee8e8d0016bc687d,Cold,25,Warm,58,Hot,75,comparative,Max,83,HOTTER,NULL
1572466369,2ada59a85745553b0092a01595a5143e,PennController,5,0,input-Bathtub,NULL,Scale,levels,Choice,90,1572466127875,5cc723e6ee8e8d0016bc687d,Cold,25,Warm,58,Hot,75,comparative,Max,83,HOTTER,NULL
1572466369,2ada59a85745553b0092a01595a5143e,PennController,5,0,input-Bathtub,NULL,PennController,10,_Trial_,End,1572466130473,5cc723e6ee8e8d0016bc687d,Cold,25,Warm,58,Hot,75,comparative,Max,83,HOTTER,NULL
1572466369,2ada59a85745553b0092a01595a5143e,PennController,1,0,demo-Lamp,NULL,PennController,6,_Trial_,Start,1572466130475,5cc723e6ee8e8d0016bc687d,Dark,0,Dim,41,Bright,75,comparative,Mid,33,DIMMER,NULL
1572466369,2ada59a85745553b0092a01595a5143e,PennController,1,0,demo-Lamp,NULL,PennController,6,_Header_,Start,1572466130475,5cc723e6ee8e8d0016bc687d,Dark,0,Dim,41,Bright,75,comparative,Mid,33,DIMMER,NULL
1572466369,2ada59a85745553b0092a01595a5143e,PennController,1,0,demo-Lamp,NULL,PennController,6,_Header_,End,1572466130476,5cc723e6ee8e8d0016bc687d,Dark,0,Dim,41,Bright,75,comparative,Mid,33,DIMMER,NULL
1572466369,2ada59a85745553b0092a01595a5143e,PennController,1,0,demo-Lamp,NULL,Scale,levels,Choice,NA,Never,5cc723e6ee8e8d0016bc687d,Dark,0,Dim,41,Bright,75,comparative,Mid,33,DIMMER,No selection happened
1572466369,2ada59a85745553b0092a01595a5143e,PennController,1,0,demo-Lamp,NULL,PennController,6,_Trial_,End,1572466148840,5cc723e6ee8e8d0016bc687d,Dark,0,Dim,41,Bright,75,comparative,Mid,33,DIMMER,NULL
1572466369,2ada59a85745553b0092a01595a5143e,PennController,29,0,practice-Lamp,NULL,PennController,28,_Trial_,Start,1572466148842,5cc723e6ee8e8d0016bc687d,Dark,0,Dim,41,Bright,75,comparative,Mid,33,DIMMER,NULL
1572466369,2ada59a85745553b0092a01595a5143e,PennController,29,0,practice-Lamp,NULL,PennController,28,_Header_,Start,1572466148842,5cc723e6ee8e8d0016bc687d,Dark,0,Dim,41,Bright,75,comparative,Mid,33,DIMMER,NULL
1572466369,2ada59a85745553b0092a01595a5143e,PennController,29,0,practice-Lamp,NULL,PennController,28,_Header_,End,1572466148843,5cc723e6ee8e8d0016bc687d,Dark,0,Dim,41,Bright,75,comparative,Mid,33,DIMMER,NULL
1572466369,2ada59a85745553b0092a01595a5143e,PennController,29,0,practice-Lamp,NULL,Scale,levels,Choice,43,1572466153784,5cc723e6ee8e8d0016bc687d,Dark,0,Dim,41,Bright,75,comparative,Mid,33,DIMMER,NULL
1572466369,2ada59a85745553b0092a01595a5143e,PennController,29,0,practice-Lamp,NULL,Var,errors,Final,0,1572466155347,5cc723e6ee8e8d0016bc687d,Dark,0,Dim,41,Bright,75,comparative,Mid,33,DIMMER,Value at the end of the trial
1572466369,2ada59a85745553b0092a01595a5143e,PennController,29,0,practice-Lamp,NULL,PennController,28,_Trial_,End,1572466155347,5cc723e6ee8e8d0016bc687d,Dark,0,Dim,41,Bright,75,comparative,Mid,33,DIMMER,NULL
1572466369,2ada59a85745553b0092a01595a5143e,PennController,30,0,practice-Lamp,NULL,PennController,29,_Trial_,Start,1572466155349,5cc723e6ee8e8d0016bc687d,Dark,0,Dim,41,Bright,75,comparative,Max,83,BRIGHTER,NULL
1572466369,2ada59a85745553b0092a01595a5143e,PennController,30,0,practice-Lamp,NULL,PennController,29,_Header_,Start,1572466155349,5cc723e6ee8e8d0016bc687d,Dark,0,Dim,41,Bright,75,comparative,Max,83,BRIGHTER,NULL
1572466369,2ada59a85745553b0092a01595a5143e,PennController,30,0,practice-Lamp,NULL,PennController,29,_Header_,End,1572466155349,5cc723e6ee8e8d0016bc687d,Dark,0,Dim,41,Bright,75,comparative,Max,83,BRIGHTER,NULL
1572466369,2ada59a85745553b0092a01595a5143e,PennController,30,0,practice-Lamp,NULL,Scale,levels,Choice,77,1572466161994,5cc723e6ee8e8d0016bc687d,Dark,0,Dim,41,Bright,75,comparative,Max,83,BRIGHTER,NULL
1572466369,2ada59a85745553b0092a01595a5143e,PennController,30,0,practice-Lamp,NULL,Var,errors,Final,1,1572466163618,5cc723e6ee8e8d0016bc687d,Dark,0,Dim,41,Bright,75,comparative,Max,83,BRIGHTER,Value at the end of the trial
1572466369,2ada59a85745553b0092a01595a5143e,PennController,30,0,practice-Lamp,NULL,PennController,29,_Trial_,End,1572466163618,5cc723e6ee8e8d0016bc687d,Dark,0,Dim,41,Bright,75,comparative,Max,83,BRIGHTER,NULL
1572466369,2ada59a85745553b0092a01595a5143e,PennController,29,0,practice-Lamp,NULL,PennController,28,_Trial_,Start,1572466163620,5cc723e6ee8e8d0016bc687d,Dark,0,Dim,41,Bright,75,comparative,Mid,33,DIMMER,NULL
1572466369,2ada59a85745553b0092a01595a5143e,PennController,29,0,practice-Lamp,NULL,PennController,28,_Header_,Start,1572466163620,5cc723e6ee8e8d0016bc687d,Dark,0,Dim,41,Bright,75,comparative,Mid,33,DIMMER,NULL
1572466369,2ada59a85745553b0092a01595a5143e,PennController,29,0,practice-Lamp,NULL,PennController,28,_Header_,End,1572466163620,5cc723e6ee8e8d0016bc687d,Dark,0,Dim,41,Bright,75,comparative,Mid,33,DIMMER,NULL
1572466369,2ada59a85745553b0092a01595a5143e,PennController,29,0,practice-Lamp,NULL,Scale,levels,Choice,43,1572466167292,5cc723e6ee8e8d0016bc687d,Dark,0,Dim,41,Bright,75,comparative,Mid,33,DIMMER,NULL
1572466369,2ada59a85745553b0092a01595a5143e,PennController,29,0,practice-Lamp,NULL,Var,errors,Final,0,1572466168882,5cc723e6ee8e8d0016bc687d,Dark,0,Dim,41,Bright,75,comparative,Mid,33,DIMMER,Value at the end of the trial
1572466369,2ada59a85745553b0092a01595a5143e,PennController,29,0,practice-Lamp,NULL,PennController,28,_Trial_,End,1572466168882,5cc723e6ee8e8d0016bc687d,Dark,0,Dim,41,Bright,75,comparative,Mid,33,DIMMER,NULL
1572466369,2ada59a85745553b0092a01595a5143e,PennController,30,0,practice-Lamp,NULL,PennController,29,_Trial_,Start,1572466168883,5cc723e6ee8e8d0016bc687d,Dark,0,Dim,41,Bright,75,comparative,Max,83,BRIGHTER,NULL
1572466369,2ada59a85745553b0092a01595a5143e,PennController,30,0,practice-Lamp,NULL,PennController,29,_Header_,Start,1572466168883,5cc723e6ee8e8d0016bc687d,Dark,0,Dim,41,Bright,75,comparative,Max,83,BRIGHTER,NULL
1572466369,2ada59a85745553b0092a01595a5143e,PennController,30,0,practice-Lamp,NULL,PennController,29,_Header_,End,1572466168884,5cc723e6ee8e8d0016bc687d,Dark,0,Dim,41,Bright,75,comparative,Max,83,BRIGHTER,NULL
1572466369,2ada59a85745553b0092a01595a5143e,PennController,30,0,practice-Lamp,NULL,Scale,levels,Choice,77,1572466172999,5cc723e6ee8e8d0016bc687d,Dark,0,Dim,41,Bright,75,comparative,Max,83,BRIGHTER,NULL
1572466369,2ada59a85745553b0092a01595a5143e,PennController,30,0,practice-Lamp,NULL,Var,errors,Final,0,1572466174418,5cc723e6ee8e8d0016bc687d,Dark,0,Dim,41,Bright,75,comparative,Max,83,BRIGHTER,Value at the end of the trial
1572466369,2ada59a85745553b0092a01595a5143e,PennController,30,0,practice-Lamp,NULL,PennController,29,_Trial_,End,1572466174418,5cc723e6ee8e8d0016bc687d,Dark,0,Dim,41,Bright,75,comparative,Max,83,BRIGHTER,NULL
1572466369,2ada59a85745553b0092a01595a5143e,PennController,11,0,input-Lamp,NULL,PennController,16,_Trial_,Start,1572466174420,5cc723e6ee8e8d0016bc687d,Dark,0,Dim,41,Bright,75,excessive,Max,83,TOO BRIGHT,NULL
1572466369,2ada59a85745553b0092a01595a5143e,PennController,11,0,input-Lamp,NULL,PennController,16,_Header_,Start,1572466174420,5cc723e6ee8e8d0016bc687d,Dark,0,Dim,41,Bright,75,excessive,Max,83,TOO BRIGHT,NULL
1572466369,2ada59a85745553b0092a01595a5143e,PennController,11,0,input-Lamp,NULL,PennController,16,_Header_,End,1572466174420,5cc723e6ee8e8d0016bc687d,Dark,0,Dim,41,Bright,75,excessive,Max,83,TOO BRIGHT,NULL
1572466369,2ada59a85745553b0092a01595a5143e,PennController,11,0,input-Lamp,NULL,Scale,levels,Choice,84,1572466180483,5cc723e6ee8e8d0016bc687d,Dark,0,Dim,41,Bright,75,excessive,Max,83,TOO BRIGHT,NULL
1572466369,2ada59a85745553b0092a01595a5143e,PennController,11,0,input-Lamp,NULL,Scale,levels,Choice,83,1572466180508,5cc723e6ee8e8d0016bc687d,Dark,0,Dim,41,Bright,75,excessive,Max,83,TOO BRIGHT,NULL
1572466369,2ada59a85745553b0092a01595a5143e,PennController,11,0,input-Lamp,NULL,Scale,levels,Choice,82,1572466180520,5cc723e6ee8e8d0016bc687d,Dark,0,Dim,41,Bright,75,excessive,Max,83,TOO BRIGHT,NULL
1572466369,2ada59a85745553b0092a01595a5143e,PennController,11,0,input-Lamp,NULL,Scale,levels,Choice,81,1572466180534,5cc723e6ee8e8d0016bc687d,Dark,0,Dim,41,Bright,75,excessive,Max,83,TOO BRIGHT,NULL
1572466369,2ada59a85745553b0092a01595a5143e,PennController,11,0,input-Lamp,NULL,Scale,levels,Choice,80,1572466180542,5cc723e6ee8e8d0016bc687d,Dark,0,Dim,41,Bright,75,excessive,Max,83,TOO BRIGHT,NULL
1572466369,2ada59a85745553b0092a01595a5143e,PennController,11,0,input-Lamp,NULL,Scale,levels,Choice,79,1572466180549,5cc723e6ee8e8d0016bc687d,Dark,0,Dim,41,Bright,75,excessive,Max,83,TOO BRIGHT,NULL
1572466369,2ada59a85745553b0092a01595a5143e,PennController,11,0,input-Lamp,NULL,Scale,levels,Choice,78,1572466180556,5cc723e6ee8e8d0016bc687d,Dark,0,Dim,41,Bright,75,excessive,Max,83,TOO BRIGHT,NULL
1572466369,2ada59a85745553b0092a01595a5143e,PennController,11,0,input-Lamp,NULL,Scale,levels,Choice,77,1572466180562,5cc723e6ee8e8d0016bc687d,Dark,0,Dim,41,Bright,75,excessive,Max,83,TOO BRIGHT,NULL
1572466369,2ada59a85745553b0092a01595a5143e,PennController,11,0,input-Lamp,NULL,Scale,levels,Choice,75,1572466180570,5cc723e6ee8e8d0016bc687d,Dark,0,Dim,41,Bright,75,excessive,Max,83,TOO BRIGHT,NULL
1572466369,2ada59a85745553b0092a01595a5143e,PennController,11,0,input-Lamp,NULL,Scale,levels,Choice,74,1572466180576,5cc723e6ee8e8d0016bc687d,Dark,0,Dim,41,Bright,75,excessive,Max,83,TOO BRIGHT,NULL
1572466369,2ada59a85745553b0092a01595a5143e,PennController,11,0,input-Lamp,NULL,Scale,levels,Choice,73,1572466180583,5cc723e6ee8e8d0016bc687d,Dark,0,Dim,41,Bright,75,excessive,Max,83,TOO BRIGHT,NULL
1572466369,2ada59a85745553b0092a01595a5143e,PennController,11,0,input-Lamp,NULL,Scale,levels,Choice,72,1572466180590,5cc723e6ee8e8d0016bc687d,Dark,0,Dim,41,Bright,75,excessive,Max,83,TOO BRIGHT,NULL
1572466369,2ada59a85745553b0092a01595a5143e,PennController,11,0,input-Lamp,NULL,Scale,levels,Choice,70,1572466180598,5cc723e6ee8e8d0016bc687d,Dark,0,Dim,41,Bright,75,excessive,Max,83,TOO BRIGHT,NULL
1572466369,2ada59a85745553b0092a01595a5143e,PennController,11,0,input-Lamp,NULL,Scale,levels,Choice,69,1572466180604,5cc723e6ee8e8d0016bc687d,Dark,0,Dim,41,Bright,75,excessive,Max,83,TOO BRIGHT,NULL
1572466369,2ada59a85745553b0092a01595a5143e,PennController,11,0,input-Lamp,NULL,Scale,levels,Choice,68,1572466180625,5cc723e6ee8e8d0016bc687d,Dark,0,Dim,41,Bright,75,excessive,Max,83,TOO BRIGHT,NULL
1572466369,2ada59a85745553b0092a01595a5143e,PennController,11,0,input-Lamp,NULL,Scale,levels,Choice,67,1572466180694,5cc723e6ee8e8d0016bc687d,Dark,0,Dim,41,Bright,75,excessive,Max,83,TOO BRIGHT,NULL
1572466369,2ada59a85745553b0092a01595a5143e,PennController,11,0,input-Lamp,NULL,Scale,levels,Choice,66,1572466180771,5cc723e6ee8e8d0016bc687d,Dark,0,Dim,41,Bright,75,excessive,Max,83,TOO BRIGHT,NULL
1572466369,2ada59a85745553b0092a01595a5143e,PennController,11,0,input-Lamp,NULL,Scale,levels,Choice,65,1572466180792,5cc723e6ee8e8d0016bc687d,Dark,0,Dim,41,Bright,75,excessive,Max,83,TOO BRIGHT,NULL
1572466369,2ada59a85745553b0092a01595a5143e,PennController,11,0,input-Lamp,NULL,Scale,levels,Choice,64,1572466180820,5cc723e6ee8e8d0016bc687d,Dark,0,Dim,41,Bright,75,excessive,Max,83,TOO BRIGHT,NULL
1572466369,2ada59a85745553b0092a01595a5143e,PennController,11,0,input-Lamp,NULL,Scale,levels,Choice,63,1572466180840,5cc723e6ee8e8d0016bc687d,Dark,0,Dim,41,Bright,75,excessive,Max,83,TOO BRIGHT,NULL
1572466369,2ada59a85745553b0092a01595a5143e,PennController,11,0,input-Lamp,NULL,Scale,levels,Choice,62,1572466180855,5cc723e6ee8e8d0016bc687d,Dark,0,Dim,41,Bright,75,excessive,Max,83,TOO BRIGHT,NULL
1572466369,2ada59a85745553b0092a01595a5143e,PennController,11,0,input-Lamp,NULL,PennController,16,_Trial_,End,1572466183148,5cc723e6ee8e8d0016bc687d,Dark,0,Dim,41,Bright,75,excessive,Max,83,TOO BRIGHT,NULL
1572466369,2ada59a85745553b0092a01595a5143e,PennController,8,0,input-Lamp,NULL,PennController,13,_Trial_,Start,1572466183150,5cc723e6ee8e8d0016bc687d,Dark,0,Dim,41,Bright,75,comparative,Mid,33,DIMMER,NULL
1572466369,2ada59a85745553b0092a01595a5143e,PennController,8,0,input-Lamp,NULL,PennController,13,_Header_,Start,1572466183150,5cc723e6ee8e8d0016bc687d,Dark,0,Dim,41,Bright,75,comparative,Mid,33,DIMMER,NULL
1572466369,2ada59a85745553b0092a01595a5143e,PennController,8,0,input-Lamp,NULL,PennController,13,_Header_,End,1572466183150,5cc723e6ee8e8d0016bc687d,Dark,0,Dim,41,Bright,75,comparative,Mid,33,DIMMER,NULL
1572466369,2ada59a85745553b0092a01595a5143e,PennController,8,0,input-Lamp,NULL,Scale,levels,Choice,34,1572466191123,5cc723e6ee8e8d0016bc687d,Dark,0,Dim,41,Bright,75,comparative,Mid,33,DIMMER,NULL
1572466369,2ada59a85745553b0092a01595a5143e,PennController,8,0,input-Lamp,NULL,Scale,levels,Choice,33,1572466191140,5cc723e6ee8e8d0016bc687d,Dark,0,Dim,41,Bright,75,comparative,Mid,33,DIMMER,NULL
1572466369,2ada59a85745553b0092a01595a5143e,PennController,8,0,input-Lamp,NULL,Scale,levels,Choice,32,1572466191188,5cc723e6ee8e8d0016bc687d,Dark,0,Dim,41,Bright,75,comparative,Mid,33,DIMMER,NULL
1572466369,2ada59a85745553b0092a01595a5143e,PennController,8,0,input-Lamp,NULL,Scale,levels,Choice,31,1572466191278,5cc723e6ee8e8d0016bc687d,Dark,0,Dim,41,Bright,75,comparative,Mid,33,DIMMER,NULL
1572466369,2ada59a85745553b0092a01595a5143e,PennController,8,0,input-Lamp,NULL,Scale,levels,Choice,30,1572466191396,5cc723e6ee8e8d0016bc687d,Dark,0,Dim,41,Bright,75,comparative,Mid,33,DIMMER,NULL
1572466369,2ada59a85745553b0092a01595a5143e,PennController,8,0,input-Lamp,NULL,Scale,levels,Choice,29,1572466191431,5cc723e6ee8e8d0016bc687d,Dark,0,Dim,41,Bright,75,comparative,Mid,33,DIMMER,NULL
1572466369,2ada59a85745553b0092a01595a5143e,PennController,8,0,input-Lamp,NULL,Scale,levels,Choice,28,1572466191473,5cc723e6ee8e8d0016bc687d,Dark,0,Dim,41,Bright,75,comparative,Mid,33,DIMMER,NULL
1572466369,2ada59a85745553b0092a01595a5143e,PennController,8,0,input-Lamp,NULL,Scale,levels,Choice,27,1572466191514,5cc723e6ee8e8d0016bc687d,Dark,0,Dim,41,Bright,75,comparative,Mid,33,DIMMER,NULL
1572466369,2ada59a85745553b0092a01595a5143e,PennController,8,0,input-Lamp,NULL,Scale,levels,Choice,26,1572466191535,5cc723e6ee8e8d0016bc687d,Dark,0,Dim,41,Bright,75,comparative,Mid,33,DIMMER,NULL
1572466369,2ada59a85745553b0092a01595a5143e,PennController,8,0,input-Lamp,NULL,Scale,levels,Choice,25,1572466191556,5cc723e6ee8e8d0016bc687d,Dark,0,Dim,41,Bright,75,comparative,Mid,33,DIMMER,NULL
1572466369,2ada59a85745553b0092a01595a5143e,PennController,8,0,input-Lamp,NULL,Scale,levels,Choice,24,1572466191806,5cc723e6ee8e8d0016bc687d,Dark,0,Dim,41,Bright,75,comparative,Mid,33,DIMMER,NULL
1572466369,2ada59a85745553b0092a01595a5143e,PennController,8,0,input-Lamp,NULL,Scale,levels,Choice,23,1572466191834,5cc723e6ee8e8d0016bc687d,Dark,0,Dim,41,Bright,75,comparative,Mid,33,DIMMER,NULL
1572466369,2ada59a85745553b0092a01595a5143e,PennController,8,0,input-Lamp,NULL,Scale,levels,Choice,22,1572466191883,5cc723e6ee8e8d0016bc687d,Dark,0,Dim,41,Bright,75,comparative,Mid,33,DIMMER,NULL
1572466369,2ada59a85745553b0092a01595a5143e,PennController,8,0,input-Lamp,NULL,Scale,levels,Choice,21,1572466191911,5cc723e6ee8e8d0016bc687d,Dark,0,Dim,41,Bright,75,comparative,Mid,33,DIMMER,NULL
1572466369,2ada59a85745553b0092a01595a5143e,PennController,8,0,input-Lamp,NULL,PennController,13,_Trial_,End,1572466194141,5cc723e6ee8e8d0016bc687d,Dark,0,Dim,41,Bright,75,comparative,Mid,33,DIMMER,NULL
1572466369,2ada59a85745553b0092a01595a5143e,PennController,10,0,input-Lamp,NULL,PennController,15,_Trial_,Start,1572466194143,5cc723e6ee8e8d0016bc687d,Dark,0,Dim,41,Bright,75,excessive,Mid,33,TOO DIM,NULL
1572466369,2ada59a85745553b0092a01595a5143e,PennController,10,0,input-Lamp,NULL,PennController,15,_Header_,Start,1572466194143,5cc723e6ee8e8d0016bc687d,Dark,0,Dim,41,Bright,75,excessive,Mid,33,TOO DIM,NULL
1572466369,2ada59a85745553b0092a01595a5143e,PennController,10,0,input-Lamp,NULL,PennController,15,_Header_,End,1572466194143,5cc723e6ee8e8d0016bc687d,Dark,0,Dim,41,Bright,75,excessive,Mid,33,TOO DIM,NULL
1572466369,2ada59a85745553b0092a01595a5143e,PennController,10,0,input-Lamp,NULL,Scale,levels,Choice,34,1572466198906,5cc723e6ee8e8d0016bc687d,Dark,0,Dim,41,Bright,75,excessive,Mid,33,TOO DIM,NULL
1572466369,2ada59a85745553b0092a01595a5143e,PennController,10,0,input-Lamp,NULL,Scale,levels,Choice,35,1572466198917,5cc723e6ee8e8d0016bc687d,Dark,0,Dim,41,Bright,75,excessive,Mid,33,TOO DIM,NULL
1572466369,2ada59a85745553b0092a01595a5143e,PennController,10,0,input-Lamp,NULL,Scale,levels,Choice,36,1572466198930,5cc723e6ee8e8d0016bc687d,Dark,0,Dim,41,Bright,75,excessive,Mid,33,TOO DIM,NULL
1572466369,2ada59a85745553b0092a01595a5143e,PennController,10,0,input-Lamp,NULL,Scale,levels,Choice,37,1572466198938,5cc723e6ee8e8d0016bc687d,Dark,0,Dim,41,Bright,75,excessive,Mid,33,TOO DIM,NULL
1572466369,2ada59a85745553b0092a01595a5143e,PennController,10,0,input-Lamp,NULL,Scale,levels,Choice,39,1572466198952,5cc723e6ee8e8d0016bc687d,Dark,0,Dim,41,Bright,75,excessive,Mid,33,TOO DIM,NULL
1572466369,2ada59a85745553b0092a01595a5143e,PennController,10,0,input-Lamp,NULL,Scale,levels,Choice,40,1572466198960,5cc723e6ee8e8d0016bc687d,Dark,0,Dim,41,Bright,75,excessive,Mid,33,TOO DIM,NULL
1572466369,2ada59a85745553b0092a01595a5143e,PennController,10,0,input-Lamp,NULL,Scale,levels,Choice,41,1572466198966,5cc723e6ee8e8d0016bc687d,Dark,0,Dim,41,Bright,75,excessive,Mid,33,TOO DIM,NULL
1572466369,2ada59a85745553b0092a01595a5143e,PennController,10,0,input-Lamp,NULL,Scale,levels,Choice,43,1572466198980,5cc723e6ee8e8d0016bc687d,Dark,0,Dim,41,Bright,75,excessive,Mid,33,TOO DIM,NULL
1572466369,2ada59a85745553b0092a01595a5143e,PennController,10,0,input-Lamp,NULL,Scale,levels,Choice,44,1572466198988,5cc723e6ee8e8d0016bc687d,Dark,0,Dim,41,Bright,75,excessive,Mid,33,TOO DIM,NULL
1572466369,2ada59a85745553b0092a01595a5143e,PennController,10,0,input-Lamp,NULL,Scale,levels,Choice,45,1572466199034,5cc723e6ee8e8d0016bc687d,Dark,0,Dim,41,Bright,75,excessive,Mid,33,TOO DIM,NULL
1572466369,2ada59a85745553b0092a01595a5143e,PennController,10,0,input-Lamp,NULL,Scale,levels,Choice,46,1572466199043,5cc723e6ee8e8d0016bc687d,Dark,0,Dim,41,Bright,75,excessive,Mid,33,TOO DIM,NULL
1572466369,2ada59a85745553b0092a01595a5143e,PennController,10,0,input-Lamp,NULL,Scale,levels,Choice,47,1572466199049,5cc723e6ee8e8d0016bc687d,Dark,0,Dim,41,Bright,75,excessive,Mid,33,TOO DIM,NULL
1572466369,2ada59a85745553b0092a01595a5143e,PennController,10,0,input-Lamp,NULL,Scale,levels,Choice,48,1572466199056,5cc723e6ee8e8d0016bc687d,Dark,0,Dim,41,Bright,75,excessive,Mid,33,TOO DIM,NULL
1572466369,2ada59a85745553b0092a01595a5143e,PennController,10,0,input-Lamp,NULL,Scale,levels,Choice,49,1572466199063,5cc723e6ee8e8d0016bc687d,Dark,0,Dim,41,Bright,75,excessive,Mid,33,TOO DIM,NULL
1572466369,2ada59a85745553b0092a01595a5143e,PennController,10,0,input-Lamp,NULL,Scale,levels,Choice,50,1572466199070,5cc723e6ee8e8d0016bc687d,Dark,0,Dim,41,Bright,75,excessive,Mid,33,TOO DIM,NULL
1572466369,2ada59a85745553b0092a01595a5143e,PennController,10,0,input-Lamp,NULL,Scale,levels,Choice,51,1572466199077,5cc723e6ee8e8d0016bc687d,Dark,0,Dim,41,Bright,75,excessive,Mid,33,TOO DIM,NULL
1572466369,2ada59a85745553b0092a01595a5143e,PennController,10,0,input-Lamp,NULL,Scale,levels,Choice,52,1572466199174,5cc723e6ee8e8d0016bc687d,Dark,0,Dim,41,Bright,75,excessive,Mid,33,TOO DIM,NULL
1572466369,2ada59a85745553b0092a01595a5143e,PennController,10,0,input-Lamp,NULL,Scale,levels,Choice,53,1572466199194,5cc723e6ee8e8d0016bc687d,Dark,0,Dim,41,Bright,75,excessive,Mid,33,TOO DIM,NULL
1572466369,2ada59a85745553b0092a01595a5143e,PennController,10,0,input-Lamp,NULL,Scale,levels,Choice,54,1572466199209,5cc723e6ee8e8d0016bc687d,Dark,0,Dim,41,Bright,75,excessive,Mid,33,TOO DIM,NULL
1572466369,2ada59a85745553b0092a01595a5143e,PennController,10,0,input-Lamp,NULL,Scale,levels,Choice,55,1572466199341,5cc723e6ee8e8d0016bc687d,Dark,0,Dim,41,Bright,75,excessive,Mid,33,TOO DIM,NULL
1572466369,2ada59a85745553b0092a01595a5143e,PennController,10,0,input-Lamp,NULL,Scale,levels,Choice,56,1572466199423,5cc723e6ee8e8d0016bc687d,Dark,0,Dim,41,Bright,75,excessive,Mid,33,TOO DIM,NULL
1572466369,2ada59a85745553b0092a01595a5143e,PennController,10,0,input-Lamp,NULL,Scale,levels,Choice,58,1572466199438,5cc723e6ee8e8d0016bc687d,Dark,0,Dim,41,Bright,75,excessive,Mid,33,TOO DIM,NULL
1572466369,2ada59a85745553b0092a01595a5143e,PennController,10,0,input-Lamp,NULL,Scale,levels,Choice,59,1572466199452,5cc723e6ee8e8d0016bc687d,Dark,0,Dim,41,Bright,75,excessive,Mid,33,TOO DIM,NULL
1572466369,2ada59a85745553b0092a01595a5143e,PennController,10,0,input-Lamp,NULL,Scale,levels,Choice,60,1572466199460,5cc723e6ee8e8d0016bc687d,Dark,0,Dim,41,Bright,75,excessive,Mid,33,TOO DIM,NULL
1572466369,2ada59a85745553b0092a01595a5143e,PennController,10,0,input-Lamp,NULL,PennController,15,_Trial_,End,1572466201091,5cc723e6ee8e8d0016bc687d,Dark,0,Dim,41,Bright,75,excessive,Mid,33,TOO DIM,NULL
1572466369,2ada59a85745553b0092a01595a5143e,PennController,9,0,input-Lamp,NULL,PennController,14,_Trial_,Start,1572466201094,5cc723e6ee8e8d0016bc687d,Dark,0,Dim,41,Bright,75,comparative,Max,83,BRIGHTER,NULL
1572466369,2ada59a85745553b0092a01595a5143e,PennController,9,0,input-Lamp,NULL,PennController,14,_Header_,Start,1572466201094,5cc723e6ee8e8d0016bc687d,Dark,0,Dim,41,Bright,75,comparative,Max,83,BRIGHTER,NULL
1572466369,2ada59a85745553b0092a01595a5143e,PennController,9,0,input-Lamp,NULL,PennController,14,_Header_,End,1572466201094,5cc723e6ee8e8d0016bc687d,Dark,0,Dim,41,Bright,75,comparative,Max,83,BRIGHTER,NULL
1572466369,2ada59a85745553b0092a01595a5143e,PennController,9,0,input-Lamp,NULL,Scale,levels,Choice,84,1572466205601,5cc723e6ee8e8d0016bc687d,Dark,0,Dim,41,Bright,75,comparative,Max,83,BRIGHTER,NULL
1572466369,2ada59a85745553b0092a01595a5143e,PennController,9,0,input-Lamp,NULL,Scale,levels,Choice,85,1572466205604,5cc723e6ee8e8d0016bc687d,Dark,0,Dim,41,Bright,75,comparative,Max,83,BRIGHTER,NULL
1572466369,2ada59a85745553b0092a01595a5143e,PennController,9,0,input-Lamp,NULL,Scale,levels,Choice,86,1572466205628,5cc723e6ee8e8d0016bc687d,Dark,0,Dim,41,Bright,75,comparative,Max,83,BRIGHTER,NULL
1572466369,2ada59a85745553b0092a01595a5143e,PennController,9,0,input-Lamp,NULL,Scale,levels,Choice,87,1572466205640,5cc723e6ee8e8d0016bc687d,Dark,0,Dim,41,Bright,75,comparative,Max,83,BRIGHTER,NULL
1572466369,2ada59a85745553b0092a01595a5143e,PennController,9,0,input-Lamp,NULL,Scale,levels,Choice,88,1572466205647,5cc723e6ee8e8d0016bc687d,Dark,0,Dim,41,Bright,75,comparative,Max,83,BRIGHTER,NULL
1572466369,2ada59a85745553b0092a01595a5143e,PennController,9,0,input-Lamp,NULL,Scale,levels,Choice,90,1572466205660,5cc723e6ee8e8d0016bc687d,Dark,0,Dim,41,Bright,75,comparative,Max,83,BRIGHTER,NULL
1572466369,2ada59a85745553b0092a01595a5143e,PennController,9,0,input-Lamp,NULL,Scale,levels,Choice,91,1572466205668,5cc723e6ee8e8d0016bc687d,Dark,0,Dim,41,Bright,75,comparative,Max,83,BRIGHTER,NULL
1572466369,2ada59a85745553b0092a01595a5143e,PennController,9,0,input-Lamp,NULL,Scale,levels,Choice,92,1572466205674,5cc723e6ee8e8d0016bc687d,Dark,0,Dim,41,Bright,75,comparative,Max,83,BRIGHTER,NULL
1572466369,2ada59a85745553b0092a01595a5143e,PennController,9,0,input-Lamp,NULL,Scale,levels,Choice,93,1572466205681,5cc723e6ee8e8d0016bc687d,Dark,0,Dim,41,Bright,75,comparative,Max,83,BRIGHTER,NULL
1572466369,2ada59a85745553b0092a01595a5143e,PennController,9,0,input-Lamp,NULL,Scale,levels,Choice,94,1572466205687,5cc723e6ee8e8d0016bc687d,Dark,0,Dim,41,Bright,75,comparative,Max,83,BRIGHTER,NULL
1572466369,2ada59a85745553b0092a01595a5143e,PennController,9,0,input-Lamp,NULL,Scale,levels,Choice,95,1572466205695,5cc723e6ee8e8d0016bc687d,Dark,0,Dim,41,Bright,75,comparative,Max,83,BRIGHTER,NULL
1572466369,2ada59a85745553b0092a01595a5143e,PennController,9,0,input-Lamp,NULL,Scale,levels,Choice,96,1572466205701,5cc723e6ee8e8d0016bc687d,Dark,0,Dim,41,Bright,75,comparative,Max,83,BRIGHTER,NULL
1572466369,2ada59a85745553b0092a01595a5143e,PennController,9,0,input-Lamp,NULL,Scale,levels,Choice,97,1572466205708,5cc723e6ee8e8d0016bc687d,Dark,0,Dim,41,Bright,75,comparative,Max,83,BRIGHTER,NULL
1572466369,2ada59a85745553b0092a01595a5143e,PennController,9,0,input-Lamp,NULL,Scale,levels,Choice,98,1572466205730,5cc723e6ee8e8d0016bc687d,Dark,0,Dim,41,Bright,75,comparative,Max,83,BRIGHTER,NULL
1572466369,2ada59a85745553b0092a01595a5143e,PennController,9,0,input-Lamp,NULL,Scale,levels,Choice,99,1572466205813,5cc723e6ee8e8d0016bc687d,Dark,0,Dim,41,Bright,75,comparative,Max,83,BRIGHTER,NULL
1572466369,2ada59a85745553b0092a01595a5143e,PennController,9,0,input-Lamp,NULL,Scale,levels,Choice,100,1572466205855,5cc723e6ee8e8d0016bc687d,Dark,0,Dim,41,Bright,75,comparative,Max,83,BRIGHTER,NULL
1572466369,2ada59a85745553b0092a01595a5143e,PennController,9,0,input-Lamp,NULL,PennController,14,_Trial_,End,1572466208974,5cc723e6ee8e8d0016bc687d,Dark,0,Dim,41,Bright,75,comparative,Max,83,BRIGHTER,NULL
1572466369,2ada59a85745553b0092a01595a5143e,PennController,2,0,demo-Clock,NULL,PennController,7,_Trial_,Start,1572466208975,5cc723e6ee8e8d0016bc687d,Proom,25,Snaf,58,Tiv,75,comparative,Mid,66,SNAFFER,NULL
1572466369,2ada59a85745553b0092a01595a5143e,PennController,2,0,demo-Clock,NULL,PennController,7,_Header_,Start,1572466208975,5cc723e6ee8e8d0016bc687d,Proom,25,Snaf,58,Tiv,75,comparative,Mid,66,SNAFFER,NULL
1572466369,2ada59a85745553b0092a01595a5143e,PennController,2,0,demo-Clock,NULL,PennController,7,_Header_,End,1572466208976,5cc723e6ee8e8d0016bc687d,Proom,25,Snaf,58,Tiv,75,comparative,Mid,66,SNAFFER,NULL
1572466369,2ada59a85745553b0092a01595a5143e,PennController,2,0,demo-Clock,NULL,Scale,levels,Choice,NA,Never,5cc723e6ee8e8d0016bc687d,Proom,25,Snaf,58,Tiv,75,comparative,Mid,66,SNAFFER,No selection happened
1572466369,2ada59a85745553b0092a01595a5143e,PennController,2,0,demo-Clock,NULL,PennController,7,_Trial_,End,1572466229765,5cc723e6ee8e8d0016bc687d,Proom,25,Snaf,58,Tiv,75,comparative,Mid,66,SNAFFER,NULL
1572466369,2ada59a85745553b0092a01595a5143e,PennController,31,0,practice-Clock,NULL,PennController,30,_Trial_,Start,1572466229770,5cc723e6ee8e8d0016bc687d,Proom,25,Snaf,58,Tiv,75,comparative,Mid,66,SNAFFER,NULL
1572466369,2ada59a85745553b0092a01595a5143e,PennController,31,0,practice-Clock,NULL,PennController,30,_Header_,Start,1572466229770,5cc723e6ee8e8d0016bc687d,Proom,25,Snaf,58,Tiv,75,comparative,Mid,66,SNAFFER,NULL
1572466369,2ada59a85745553b0092a01595a5143e,PennController,31,0,practice-Clock,NULL,PennController,30,_Header_,End,1572466229770,5cc723e6ee8e8d0016bc687d,Proom,25,Snaf,58,Tiv,75,comparative,Mid,66,SNAFFER,NULL
1572466369,2ada59a85745553b0092a01595a5143e,PennController,31,0,practice-Clock,NULL,Scale,levels,Choice,60,1572466239231,5cc723e6ee8e8d0016bc687d,Proom,25,Snaf,58,Tiv,75,comparative,Mid,66,SNAFFER,NULL
1572466369,2ada59a85745553b0092a01595a5143e,PennController,31,0,practice-Clock,NULL,Var,errors,Final,1,1572466240662,5cc723e6ee8e8d0016bc687d,Proom,25,Snaf,58,Tiv,75,comparative,Mid,66,SNAFFER,Value at the end of the trial
1572466369,2ada59a85745553b0092a01595a5143e,PennController,31,0,practice-Clock,NULL,PennController,30,_Trial_,End,1572466240662,5cc723e6ee8e8d0016bc687d,Proom,25,Snaf,58,Tiv,75,comparative,Mid,66,SNAFFER,NULL
1572466369,2ada59a85745553b0092a01595a5143e,PennController,32,0,practice-Clock,NULL,PennController,31,_Trial_,Start,1572466240665,5cc723e6ee8e8d0016bc687d,Proom,25,Snaf,58,Tiv,75,comparative,Max,83,TIVER,NULL
1572466369,2ada59a85745553b0092a01595a5143e,PennController,32,0,practice-Clock,NULL,PennController,31,_Header_,Start,1572466240665,5cc723e6ee8e8d0016bc687d,Proom,25,Snaf,58,Tiv,75,comparative,Max,83,TIVER,NULL
1572466369,2ada59a85745553b0092a01595a5143e,PennController,32,0,practice-Clock,NULL,PennController,31,_Header_,End,1572466240665,5cc723e6ee8e8d0016bc687d,Proom,25,Snaf,58,Tiv,75,comparative,Max,83,TIVER,NULL
1572466369,2ada59a85745553b0092a01595a5143e,PennController,32,0,practice-Clock,NULL,Scale,levels,Choice,77,1572466245249,5cc723e6ee8e8d0016bc687d,Proom,25,Snaf,58,Tiv,75,comparative,Max,83,TIVER,NULL
1572466369,2ada59a85745553b0092a01595a5143e,PennController,32,0,practice-Clock,NULL,Var,errors,Final,0,1572466246690,5cc723e6ee8e8d0016bc687d,Proom,25,Snaf,58,Tiv,75,comparative,Max,83,TIVER,Value at the end of the trial
1572466369,2ada59a85745553b0092a01595a5143e,PennController,32,0,practice-Clock,NULL,PennController,31,_Trial_,End,1572466246690,5cc723e6ee8e8d0016bc687d,Proom,25,Snaf,58,Tiv,75,comparative,Max,83,TIVER,NULL
1572466369,2ada59a85745553b0092a01595a5143e,PennController,32,0,practice-Clock,NULL,PennController,31,_Trial_,Start,1572466246691,5cc723e6ee8e8d0016bc687d,Proom,25,Snaf,58,Tiv,75,comparative,Max,83,TIVER,NULL
1572466369,2ada59a85745553b0092a01595a5143e,PennController,32,0,practice-Clock,NULL,PennController,31,_Header_,Start,1572466246692,5cc723e6ee8e8d0016bc687d,Proom,25,Snaf,58,Tiv,75,comparative,Max,83,TIVER,NULL
1572466369,2ada59a85745553b0092a01595a5143e,PennController,32,0,practice-Clock,NULL,PennController,31,_Header_,End,1572466246692,5cc723e6ee8e8d0016bc687d,Proom,25,Snaf,58,Tiv,75,comparative,Max,83,TIVER,NULL
1572466369,2ada59a85745553b0092a01595a5143e,PennController,32,0,practice-Clock,NULL,Scale,levels,Choice,77,1572466250409,5cc723e6ee8e8d0016bc687d,Proom,25,Snaf,58,Tiv,75,comparative,Max,83,TIVER,NULL
1572466369,2ada59a85745553b0092a01595a5143e,PennController,32,0,practice-Clock,NULL,Var,errors,Final,0,1572466251432,5cc723e6ee8e8d0016bc687d,Proom,25,Snaf,58,Tiv,75,comparative,Max,83,TIVER,Value at the end of the trial
1572466369,2ada59a85745553b0092a01595a5143e,PennController,32,0,practice-Clock,NULL,PennController,31,_Trial_,End,1572466251433,5cc723e6ee8e8d0016bc687d,Proom,25,Snaf,58,Tiv,75,comparative,Max,83,TIVER,NULL
1572466369,2ada59a85745553b0092a01595a5143e,PennController,31,0,practice-Clock,NULL,PennController,30,_Trial_,Start,1572466251434,5cc723e6ee8e8d0016bc687d,Proom,25,Snaf,58,Tiv,75,comparative,Mid,66,SNAFFER,NULL
1572466369,2ada59a85745553b0092a01595a5143e,PennController,31,0,practice-Clock,NULL,PennController,30,_Header_,Start,1572466251434,5cc723e6ee8e8d0016bc687d,Proom,25,Snaf,58,Tiv,75,comparative,Mid,66,SNAFFER,NULL
1572466369,2ada59a85745553b0092a01595a5143e,PennController,31,0,practice-Clock,NULL,PennController,30,_Header_,End,1572466251435,5cc723e6ee8e8d0016bc687d,Proom,25,Snaf,58,Tiv,75,comparative,Mid,66,SNAFFER,NULL
1572466369,2ada59a85745553b0092a01595a5143e,PennController,31,0,practice-Clock,NULL,Scale,levels,Choice,60,1572466257723,5cc723e6ee8e8d0016bc687d,Proom,25,Snaf,58,Tiv,75,comparative,Mid,66,SNAFFER,NULL
1572466369,2ada59a85745553b0092a01595a5143e,PennController,31,0,practice-Clock,NULL,Var,errors,Final,1,1572466259134,5cc723e6ee8e8d0016bc687d,Proom,25,Snaf,58,Tiv,75,comparative,Mid,66,SNAFFER,Value at the end of the trial
1572466369,2ada59a85745553b0092a01595a5143e,PennController,31,0,practice-Clock,NULL,PennController,30,_Trial_,End,1572466259134,5cc723e6ee8e8d0016bc687d,Proom,25,Snaf,58,Tiv,75,comparative,Mid,66,SNAFFER,NULL
1572466369,2ada59a85745553b0092a01595a5143e,PennController,14,0,input-Clock,NULL,PennController,19,_Trial_,Start,1572466259136,5cc723e6ee8e8d0016bc687d,Proom,25,Snaf,58,Tiv,75,excessive,Mid,66,TOO SNAF,NULL
1572466369,2ada59a85745553b0092a01595a5143e,PennController,14,0,input-Clock,NULL,PennController,19,_Header_,Start,1572466259136,5cc723e6ee8e8d0016bc687d,Proom,25,Snaf,58,Tiv,75,excessive,Mid,66,TOO SNAF,NULL
1572466369,2ada59a85745553b0092a01595a5143e,PennController,14,0,input-Clock,NULL,PennController,19,_Header_,End,1572466259136,5cc723e6ee8e8d0016bc687d,Proom,25,Snaf,58,Tiv,75,excessive,Mid,66,TOO SNAF,NULL
1572466369,2ada59a85745553b0092a01595a5143e,PennController,14,0,input-Clock,NULL,Scale,levels,Choice,67,1572466263944,5cc723e6ee8e8d0016bc687d,Proom,25,Snaf,58,Tiv,75,excessive,Mid,66,TOO SNAF,NULL
1572466369,2ada59a85745553b0092a01595a5143e,PennController,14,0,input-Clock,NULL,Scale,levels,Choice,66,1572466263953,5cc723e6ee8e8d0016bc687d,Proom,25,Snaf,58,Tiv,75,excessive,Mid,66,TOO SNAF,NULL
1572466369,2ada59a85745553b0092a01595a5143e,PennController,14,0,input-Clock,NULL,Scale,levels,Choice,65,1572466263966,5cc723e6ee8e8d0016bc687d,Proom,25,Snaf,58,Tiv,75,excessive,Mid,66,TOO SNAF,NULL
1572466369,2ada59a85745553b0092a01595a5143e,PennController,14,0,input-Clock,NULL,Scale,levels,Choice,64,1572466263982,5cc723e6ee8e8d0016bc687d,Proom,25,Snaf,58,Tiv,75,excessive,Mid,66,TOO SNAF,NULL
1572466369,2ada59a85745553b0092a01595a5143e,PennController,14,0,input-Clock,NULL,Scale,levels,Choice,63,1572466264001,5cc723e6ee8e8d0016bc687d,Proom,25,Snaf,58,Tiv,75,excessive,Mid,66,TOO SNAF,NULL
1572466369,2ada59a85745553b0092a01595a5143e,PennController,14,0,input-Clock,NULL,Scale,levels,Choice,62,1572466264037,5cc723e6ee8e8d0016bc687d,Proom,25,Snaf,58,Tiv,75,excessive,Mid,66,TOO SNAF,NULL
1572466369,2ada59a85745553b0092a01595a5143e,PennController,14,0,input-Clock,NULL,Scale,levels,Choice,61,1572466264085,5cc723e6ee8e8d0016bc687d,Proom,25,Snaf,58,Tiv,75,excessive,Mid,66,TOO SNAF,NULL
1572466369,2ada59a85745553b0092a01595a5143e,PennController,14,0,input-Clock,NULL,Scale,levels,Choice,60,1572466264169,5cc723e6ee8e8d0016bc687d,Proom,25,Snaf,58,Tiv,75,excessive,Mid,66,TOO SNAF,NULL
1572466369,2ada59a85745553b0092a01595a5143e,PennController,14,0,input-Clock,NULL,Scale,levels,Choice,59,1572466264197,5cc723e6ee8e8d0016bc687d,Proom,25,Snaf,58,Tiv,75,excessive,Mid,66,TOO SNAF,NULL
1572466369,2ada59a85745553b0092a01595a5143e,PennController,14,0,input-Clock,NULL,Scale,levels,Choice,58,1572466264216,5cc723e6ee8e8d0016bc687d,Proom,25,Snaf,58,Tiv,75,excessive,Mid,66,TOO SNAF,NULL
1572466369,2ada59a85745553b0092a01595a5143e,PennController,14,0,input-Clock,NULL,Scale,levels,Choice,57,1572466264245,5cc723e6ee8e8d0016bc687d,Proom,25,Snaf,58,Tiv,75,excessive,Mid,66,TOO SNAF,NULL
1572466369,2ada59a85745553b0092a01595a5143e,PennController,14,0,input-Clock,NULL,Scale,levels,Choice,56,1572466264266,5cc723e6ee8e8d0016bc687d,Proom,25,Snaf,58,Tiv,75,excessive,Mid,66,TOO SNAF,NULL
1572466369,2ada59a85745553b0092a01595a5143e,PennController,14,0,input-Clock,NULL,Scale,levels,Choice,55,1572466264336,5cc723e6ee8e8d0016bc687d,Proom,25,Snaf,58,Tiv,75,excessive,Mid,66,TOO SNAF,NULL
1572466369,2ada59a85745553b0092a01595a5143e,PennController,14,0,input-Clock,NULL,Scale,levels,Choice,54,1572466264459,5cc723e6ee8e8d0016bc687d,Proom,25,Snaf,58,Tiv,75,excessive,Mid,66,TOO SNAF,NULL
1572466369,2ada59a85745553b0092a01595a5143e,PennController,14,0,input-Clock,NULL,Scale,levels,Choice,53,1572466264494,5cc723e6ee8e8d0016bc687d,Proom,25,Snaf,58,Tiv,75,excessive,Mid,66,TOO SNAF,NULL
1572466369,2ada59a85745553b0092a01595a5143e,PennController,14,0,input-Clock,NULL,Scale,levels,Choice,52,1572466264759,5cc723e6ee8e8d0016bc687d,Proom,25,Snaf,58,Tiv,75,excessive,Mid,66,TOO SNAF,NULL
1572466369,2ada59a85745553b0092a01595a5143e,PennController,14,0,input-Clock,NULL,Scale,levels,Choice,51,1572466264856,5cc723e6ee8e8d0016bc687d,Proom,25,Snaf,58,Tiv,75,excessive,Mid,66,TOO SNAF,NULL
1572466369,2ada59a85745553b0092a01595a5143e,PennController,14,0,input-Clock,NULL,PennController,19,_Trial_,End,1572466266342,5cc723e6ee8e8d0016bc687d,Proom,25,Snaf,58,Tiv,75,excessive,Mid,66,TOO SNAF,NULL
1572466369,2ada59a85745553b0092a01595a5143e,PennController,12,0,input-Clock,NULL,PennController,17,_Trial_,Start,1572466266344,5cc723e6ee8e8d0016bc687d,Proom,25,Snaf,58,Tiv,75,comparative,Mid,66,SNAFFER,NULL
1572466369,2ada59a85745553b0092a01595a5143e,PennController,12,0,input-Clock,NULL,PennController,17,_Header_,Start,1572466266344,5cc723e6ee8e8d0016bc687d,Proom,25,Snaf,58,Tiv,75,comparative,Mid,66,SNAFFER,NULL
1572466369,2ada59a85745553b0092a01595a5143e,PennController,12,0,input-Clock,NULL,PennController,17,_Header_,End,1572466266344,5cc723e6ee8e8d0016bc687d,Proom,25,Snaf,58,Tiv,75,comparative,Mid,66,SNAFFER,NULL
1572466369,2ada59a85745553b0092a01595a5143e,PennController,12,0,input-Clock,NULL,Scale,levels,Choice,67,1572466271731,5cc723e6ee8e8d0016bc687d,Proom,25,Snaf,58,Tiv,75,comparative,Mid,66,SNAFFER,NULL
1572466369,2ada59a85745553b0092a01595a5143e,PennController,12,0,input-Clock,NULL,Scale,levels,Choice,66,1572466271751,5cc723e6ee8e8d0016bc687d,Proom,25,Snaf,58,Tiv,75,comparative,Mid,66,SNAFFER,NULL
1572466369,2ada59a85745553b0092a01595a5143e,PennController,12,0,input-Clock,NULL,Scale,levels,Choice,65,1572466271779,5cc723e6ee8e8d0016bc687d,Proom,25,Snaf,58,Tiv,75,comparative,Mid,66,SNAFFER,NULL
1572466369,2ada59a85745553b0092a01595a5143e,PennController,12,0,input-Clock,NULL,Scale,levels,Choice,64,1572466271849,5cc723e6ee8e8d0016bc687d,Proom,25,Snaf,58,Tiv,75,comparative,Mid,66,SNAFFER,NULL
1572466369,2ada59a85745553b0092a01595a5143e,PennController,12,0,input-Clock,NULL,Scale,levels,Choice,63,1572466272022,5cc723e6ee8e8d0016bc687d,Proom,25,Snaf,58,Tiv,75,comparative,Mid,66,SNAFFER,NULL
1572466369,2ada59a85745553b0092a01595a5143e,PennController,12,0,input-Clock,NULL,Scale,levels,Choice,64,1572466272279,5cc723e6ee8e8d0016bc687d,Proom,25,Snaf,58,Tiv,75,comparative,Mid,66,SNAFFER,NULL
1572466369,2ada59a85745553b0092a01595a5143e,PennController,12,0,input-Clock,NULL,Scale,levels,Choice,65,1572466272300,5cc723e6ee8e8d0016bc687d,Proom,25,Snaf,58,Tiv,75,comparative,Mid,66,SNAFFER,NULL
1572466369,2ada59a85745553b0092a01595a5143e,PennController,12,0,input-Clock,NULL,Scale,levels,Choice,66,1572466272308,5cc723e6ee8e8d0016bc687d,Proom,25,Snaf,58,Tiv,75,comparative,Mid,66,SNAFFER,NULL
1572466369,2ada59a85745553b0092a01595a5143e,PennController,12,0,input-Clock,NULL,Scale,levels,Choice,67,1572466272320,5cc723e6ee8e8d0016bc687d,Proom,25,Snaf,58,Tiv,75,comparative,Mid,66,SNAFFER,NULL
1572466369,2ada59a85745553b0092a01595a5143e,PennController,12,0,input-Clock,NULL,Scale,levels,Choice,68,1572466272327,5cc723e6ee8e8d0016bc687d,Proom,25,Snaf,58,Tiv,75,comparative,Mid,66,SNAFFER,NULL
1572466369,2ada59a85745553b0092a01595a5143e,PennController,12,0,input-Clock,NULL,Scale,levels,Choice,69,1572466272516,5cc723e6ee8e8d0016bc687d,Proom,25,Snaf,58,Tiv,75,comparative,Mid,66,SNAFFER,NULL
1572466369,2ada59a85745553b0092a01595a5143e,PennController,12,0,input-Clock,NULL,Scale,levels,Choice,70,1572466272543,5cc723e6ee8e8d0016bc687d,Proom,25,Snaf,58,Tiv,75,comparative,Mid,66,SNAFFER,NULL
1572466369,2ada59a85745553b0092a01595a5143e,PennController,12,0,input-Clock,NULL,Scale,levels,Choice,71,1572466272613,5cc723e6ee8e8d0016bc687d,Proom,25,Snaf,58,Tiv,75,comparative,Mid,66,SNAFFER,NULL
1572466369,2ada59a85745553b0092a01595a5143e,PennController,12,0,input-Clock,NULL,Scale,levels,Choice,72,1572466272779,5cc723e6ee8e8d0016bc687d,Proom,25,Snaf,58,Tiv,75,comparative,Mid,66,SNAFFER,NULL
1572466369,2ada59a85745553b0092a01595a5143e,PennController,12,0,input-Clock,NULL,Scale,levels,Choice,73,1572466272814,5cc723e6ee8e8d0016bc687d,Proom,25,Snaf,58,Tiv,75,comparative,Mid,66,SNAFFER,NULL
1572466369,2ada59a85745553b0092a01595a5143e,PennController,12,0,input-Clock,NULL,PennController,17,_Trial_,End,1572466275161,5cc723e6ee8e8d0016bc687d,Proom,25,Snaf,58,Tiv,75,comparative,Mid,66,SNAFFER,NULL
1572466369,2ada59a85745553b0092a01595a5143e,PennController,15,0,input-Clock,NULL,PennController,20,_Trial_,Start,1572466275163,5cc723e6ee8e8d0016bc687d,Proom,25,Snaf,58,Tiv,75,excessive,Max,83,TOO TIV,NULL
1572466369,2ada59a85745553b0092a01595a5143e,PennController,15,0,input-Clock,NULL,PennController,20,_Header_,Start,1572466275163,5cc723e6ee8e8d0016bc687d,Proom,25,Snaf,58,Tiv,75,excessive,Max,83,TOO TIV,NULL
1572466369,2ada59a85745553b0092a01595a5143e,PennController,15,0,input-Clock,NULL,PennController,20,_Header_,End,1572466275164,5cc723e6ee8e8d0016bc687d,Proom,25,Snaf,58,Tiv,75,excessive,Max,83,TOO TIV,NULL
1572466369,2ada59a85745553b0092a01595a5143e,PennController,15,0,input-Clock,NULL,Scale,levels,Choice,84,1572466280015,5cc723e6ee8e8d0016bc687d,Proom,25,Snaf,58,Tiv,75,excessive,Max,83,TOO TIV,NULL
1572466369,2ada59a85745553b0092a01595a5143e,PennController,15,0,input-Clock,NULL,Scale,levels,Choice,83,1572466280022,5cc723e6ee8e8d0016bc687d,Proom,25,Snaf,58,Tiv,75,excessive,Max,83,TOO TIV,NULL
1572466369,2ada59a85745553b0092a01595a5143e,PennController,15,0,input-Clock,NULL,Scale,levels,Choice,82,1572466280056,5cc723e6ee8e8d0016bc687d,Proom,25,Snaf,58,Tiv,75,excessive,Max,83,TOO TIV,NULL
1572466369,2ada59a85745553b0092a01595a5143e,PennController,15,0,input-Clock,NULL,Scale,levels,Choice,81,1572466280071,5cc723e6ee8e8d0016bc687d,Proom,25,Snaf,58,Tiv,75,excessive,Max,83,TOO TIV,NULL
1572466369,2ada59a85745553b0092a01595a5143e,PennController,15,0,input-Clock,NULL,Scale,levels,Choice,80,1572466280086,5cc723e6ee8e8d0016bc687d,Proom,25,Snaf,58,Tiv,75,excessive,Max,83,TOO TIV,NULL
1572466369,2ada59a85745553b0092a01595a5143e,PennController,15,0,input-Clock,NULL,Scale,levels,Choice,79,1572466280189,5cc723e6ee8e8d0016bc687d,Proom,25,Snaf,58,Tiv,75,excessive,Max,83,TOO TIV,NULL
1572466369,2ada59a85745553b0092a01595a5143e,PennController,15,0,input-Clock,NULL,Scale,levels,Choice,78,1572466280217,5cc723e6ee8e8d0016bc687d,Proom,25,Snaf,58,Tiv,75,excessive,Max,83,TOO TIV,NULL
1572466369,2ada59a85745553b0092a01595a5143e,PennController,15,0,input-Clock,NULL,Scale,levels,Choice,77,1572466280238,5cc723e6ee8e8d0016bc687d,Proom,25,Snaf,58,Tiv,75,excessive,Max,83,TOO TIV,NULL
1572466369,2ada59a85745553b0092a01595a5143e,PennController,15,0,input-Clock,NULL,Scale,levels,Choice,76,1572466280265,5cc723e6ee8e8d0016bc687d,Proom,25,Snaf,58,Tiv,75,excessive,Max,83,TOO TIV,NULL
1572466369,2ada59a85745553b0092a01595a5143e,PennController,15,0,input-Clock,NULL,Scale,levels,Choice,75,1572466280376,5cc723e6ee8e8d0016bc687d,Proom,25,Snaf,58,Tiv,75,excessive,Max,83,TOO TIV,NULL
1572466369,2ada59a85745553b0092a01595a5143e,PennController,15,0,input-Clock,NULL,Scale,levels,Choice,74,1572466280432,5cc723e6ee8e8d0016bc687d,Proom,25,Snaf,58,Tiv,75,excessive,Max,83,TOO TIV,NULL
1572466369,2ada59a85745553b0092a01595a5143e,PennController,15,0,input-Clock,NULL,Scale,levels,Choice,73,1572466280480,5cc723e6ee8e8d0016bc687d,Proom,25,Snaf,58,Tiv,75,excessive,Max,83,TOO TIV,NULL
1572466369,2ada59a85745553b0092a01595a5143e,PennController,15,0,input-Clock,NULL,Scale,levels,Choice,72,1572466280570,5cc723e6ee8e8d0016bc687d,Proom,25,Snaf,58,Tiv,75,excessive,Max,83,TOO TIV,NULL
1572466369,2ada59a85745553b0092a01595a5143e,PennController,15,0,input-Clock,NULL,Scale,levels,Choice,71,1572466280606,5cc723e6ee8e8d0016bc687d,Proom,25,Snaf,58,Tiv,75,excessive,Max,83,TOO TIV,NULL
1572466369,2ada59a85745553b0092a01595a5143e,PennController,15,0,input-Clock,NULL,Scale,levels,Choice,70,1572466280730,5cc723e6ee8e8d0016bc687d,Proom,25,Snaf,58,Tiv,75,excessive,Max,83,TOO TIV,NULL
1572466369,2ada59a85745553b0092a01595a5143e,PennController,15,0,input-Clock,NULL,Scale,levels,Choice,69,1572466281003,5cc723e6ee8e8d0016bc687d,Proom,25,Snaf,58,Tiv,75,excessive,Max,83,TOO TIV,NULL
1572466369,2ada59a85745553b0092a01595a5143e,PennController,15,0,input-Clock,NULL,Scale,levels,Choice,68,1572466281085,5cc723e6ee8e8d0016bc687d,Proom,25,Snaf,58,Tiv,75,excessive,Max,83,TOO TIV,NULL
1572466369,2ada59a85745553b0092a01595a5143e,PennController,15,0,input-Clock,NULL,PennController,20,_Trial_,End,1572466282911,5cc723e6ee8e8d0016bc687d,Proom,25,Snaf,58,Tiv,75,excessive,Max,83,TOO TIV,NULL
1572466369,2ada59a85745553b0092a01595a5143e,PennController,13,0,input-Clock,NULL,PennController,18,_Trial_,Start,1572466282913,5cc723e6ee8e8d0016bc687d,Proom,25,Snaf,58,Tiv,75,comparative,Max,83,TIVER,NULL
1572466369,2ada59a85745553b0092a01595a5143e,PennController,13,0,input-Clock,NULL,PennController,18,_Header_,Start,1572466282913,5cc723e6ee8e8d0016bc687d,Proom,25,Snaf,58,Tiv,75,comparative,Max,83,TIVER,NULL
1572466369,2ada59a85745553b0092a01595a5143e,PennController,13,0,input-Clock,NULL,PennController,18,_Header_,End,1572466282913,5cc723e6ee8e8d0016bc687d,Proom,25,Snaf,58,Tiv,75,comparative,Max,83,TIVER,NULL
1572466369,2ada59a85745553b0092a01595a5143e,PennController,13,0,input-Clock,NULL,Scale,levels,Choice,84,1572466288016,5cc723e6ee8e8d0016bc687d,Proom,25,Snaf,58,Tiv,75,comparative,Max,83,TIVER,NULL
1572466369,2ada59a85745553b0092a01595a5143e,PennController,13,0,input-Clock,NULL,Scale,levels,Choice,85,1572466288036,5cc723e6ee8e8d0016bc687d,Proom,25,Snaf,58,Tiv,75,comparative,Max,83,TIVER,NULL
1572466369,2ada59a85745553b0092a01595a5143e,PennController,13,0,input-Clock,NULL,Scale,levels,Choice,86,1572466288058,5cc723e6ee8e8d0016bc687d,Proom,25,Snaf,58,Tiv,75,comparative,Max,83,TIVER,NULL
1572466369,2ada59a85745553b0092a01595a5143e,PennController,13,0,input-Clock,NULL,Scale,levels,Choice,87,1572466288073,5cc723e6ee8e8d0016bc687d,Proom,25,Snaf,58,Tiv,75,comparative,Max,83,TIVER,NULL
1572466369,2ada59a85745553b0092a01595a5143e,PennController,13,0,input-Clock,NULL,Scale,levels,Choice,88,1572466288092,5cc723e6ee8e8d0016bc687d,Proom,25,Snaf,58,Tiv,75,comparative,Max,83,TIVER,NULL
1572466369,2ada59a85745553b0092a01595a5143e,PennController,13,0,input-Clock,NULL,Scale,levels,Choice,89,1572466288112,5cc723e6ee8e8d0016bc687d,Proom,25,Snaf,58,Tiv,75,comparative,Max,83,TIVER,NULL
1572466369,2ada59a85745553b0092a01595a5143e,PennController,13,0,input-Clock,NULL,Scale,levels,Choice,90,1572466288196,5cc723e6ee8e8d0016bc687d,Proom,25,Snaf,58,Tiv,75,comparative,Max,83,TIVER,NULL
1572466369,2ada59a85745553b0092a01595a5143e,PennController,13,0,input-Clock,NULL,Scale,levels,Choice,91,1572466288273,5cc723e6ee8e8d0016bc687d,Proom,25,Snaf,58,Tiv,75,comparative,Max,83,TIVER,NULL
1572466369,2ada59a85745553b0092a01595a5143e,PennController,13,0,input-Clock,NULL,Scale,levels,Choice,92,1572466288314,5cc723e6ee8e8d0016bc687d,Proom,25,Snaf,58,Tiv,75,comparative,Max,83,TIVER,NULL
1572466369,2ada59a85745553b0092a01595a5143e,PennController,13,0,input-Clock,NULL,Scale,levels,Choice,93,1572466288341,5cc723e6ee8e8d0016bc687d,Proom,25,Snaf,58,Tiv,75,comparative,Max,83,TIVER,NULL
1572466369,2ada59a85745553b0092a01595a5143e,PennController,13,0,input-Clock,NULL,Scale,levels,Choice,94,1572466288488,5cc723e6ee8e8d0016bc687d,Proom,25,Snaf,58,Tiv,75,comparative,Max,83,TIVER,NULL
1572466369,2ada59a85745553b0092a01595a5143e,PennController,13,0,input-Clock,NULL,PennController,18,_Trial_,End,1572466290245,5cc723e6ee8e8d0016bc687d,Proom,25,Snaf,58,Tiv,75,comparative,Max,83,TIVER,NULL
1572466369,2ada59a85745553b0092a01595a5143e,PennController,3,0,demo-Bed,NULL,PennController,8,_Trial_,Start,1572466290247,5cc723e6ee8e8d0016bc687d,Vake,0,Wug,41,Teeve,75,comparative,Mid,33,WUGGER,NULL
1572466369,2ada59a85745553b0092a01595a5143e,PennController,3,0,demo-Bed,NULL,PennController,8,_Header_,Start,1572466290247,5cc723e6ee8e8d0016bc687d,Vake,0,Wug,41,Teeve,75,comparative,Mid,33,WUGGER,NULL
1572466369,2ada59a85745553b0092a01595a5143e,PennController,3,0,demo-Bed,NULL,PennController,8,_Header_,End,1572466290247,5cc723e6ee8e8d0016bc687d,Vake,0,Wug,41,Teeve,75,comparative,Mid,33,WUGGER,NULL
1572466369,2ada59a85745553b0092a01595a5143e,PennController,3,0,demo-Bed,NULL,Scale,levels,Choice,NA,Never,5cc723e6ee8e8d0016bc687d,Vake,0,Wug,41,Teeve,75,comparative,Mid,33,WUGGER,No selection happened
1572466369,2ada59a85745553b0092a01595a5143e,PennController,3,0,demo-Bed,NULL,PennController,8,_Trial_,End,1572466307796,5cc723e6ee8e8d0016bc687d,Vake,0,Wug,41,Teeve,75,comparative,Mid,33,WUGGER,NULL
1572466369,2ada59a85745553b0092a01595a5143e,PennController,34,0,practice-Bed,NULL,PennController,33,_Trial_,Start,1572466307797,5cc723e6ee8e8d0016bc687d,Vake,0,Wug,41,Teeve,75,comparative,Max,83,TEEVER,NULL
1572466369,2ada59a85745553b0092a01595a5143e,PennController,34,0,practice-Bed,NULL,PennController,33,_Header_,Start,1572466307797,5cc723e6ee8e8d0016bc687d,Vake,0,Wug,41,Teeve,75,comparative,Max,83,TEEVER,NULL
1572466369,2ada59a85745553b0092a01595a5143e,PennController,34,0,practice-Bed,NULL,PennController,33,_Header_,End,1572466307798,5cc723e6ee8e8d0016bc687d,Vake,0,Wug,41,Teeve,75,comparative,Max,83,TEEVER,NULL
1572466369,2ada59a85745553b0092a01595a5143e,PennController,34,0,practice-Bed,NULL,Scale,levels,Choice,77,1572466312375,5cc723e6ee8e8d0016bc687d,Vake,0,Wug,41,Teeve,75,comparative,Max,83,TEEVER,NULL
1572466369,2ada59a85745553b0092a01595a5143e,PennController,34,0,practice-Bed,NULL,Var,errors,Final,0,1572466313870,5cc723e6ee8e8d0016bc687d,Vake,0,Wug,41,Teeve,75,comparative,Max,83,TEEVER,Value at the end of the trial
1572466369,2ada59a85745553b0092a01595a5143e,PennController,34,0,practice-Bed,NULL,PennController,33,_Trial_,End,1572466313870,5cc723e6ee8e8d0016bc687d,Vake,0,Wug,41,Teeve,75,comparative,Max,83,TEEVER,NULL
1572466369,2ada59a85745553b0092a01595a5143e,PennController,33,0,practice-Bed,NULL,PennController,32,_Trial_,Start,1572466313872,5cc723e6ee8e8d0016bc687d,Vake,0,Wug,41,Teeve,75,comparative,Mid,33,WUGGER,NULL
1572466369,2ada59a85745553b0092a01595a5143e,PennController,33,0,practice-Bed,NULL,PennController,32,_Header_,Start,1572466313872,5cc723e6ee8e8d0016bc687d,Vake,0,Wug,41,Teeve,75,comparative,Mid,33,WUGGER,NULL
1572466369,2ada59a85745553b0092a01595a5143e,PennController,33,0,practice-Bed,NULL,PennController,32,_Header_,End,1572466313872,5cc723e6ee8e8d0016bc687d,Vake,0,Wug,41,Teeve,75,comparative,Mid,33,WUGGER,NULL
1572466369,2ada59a85745553b0092a01595a5143e,PennController,33,0,practice-Bed,NULL,Scale,levels,Choice,43,1572466317435,5cc723e6ee8e8d0016bc687d,Vake,0,Wug,41,Teeve,75,comparative,Mid,33,WUGGER,NULL
1572466369,2ada59a85745553b0092a01595a5143e,PennController,33,0,practice-Bed,NULL,Var,errors,Final,0,1572466318474,5cc723e6ee8e8d0016bc687d,Vake,0,Wug,41,Teeve,75,comparative,Mid,33,WUGGER,Value at the end of the trial
1572466369,2ada59a85745553b0092a01595a5143e,PennController,33,0,practice-Bed,NULL,PennController,32,_Trial_,End,1572466318474,5cc723e6ee8e8d0016bc687d,Vake,0,Wug,41,Teeve,75,comparative,Mid,33,WUGGER,NULL
1572466369,2ada59a85745553b0092a01595a5143e,PennController,34,0,practice-Bed,NULL,PennController,33,_Trial_,Start,1572466318476,5cc723e6ee8e8d0016bc687d,Vake,0,Wug,41,Teeve,75,comparative,Max,83,TEEVER,NULL
1572466369,2ada59a85745553b0092a01595a5143e,PennController,34,0,practice-Bed,NULL,PennController,33,_Header_,Start,1572466318477,5cc723e6ee8e8d0016bc687d,Vake,0,Wug,41,Teeve,75,comparative,Max,83,TEEVER,NULL
1572466369,2ada59a85745553b0092a01595a5143e,PennController,34,0,practice-Bed,NULL,PennController,33,_Header_,End,1572466318477,5cc723e6ee8e8d0016bc687d,Vake,0,Wug,41,Teeve,75,comparative,Max,83,TEEVER,NULL
1572466369,2ada59a85745553b0092a01595a5143e,PennController,34,0,practice-Bed,NULL,Scale,levels,Choice,77,1572466322490,5cc723e6ee8e8d0016bc687d,Vake,0,Wug,41,Teeve,75,comparative,Max,83,TEEVER,NULL
1572466369,2ada59a85745553b0092a01595a5143e,PennController,34,0,practice-Bed,NULL,Var,errors,Final,0,1572466323391,5cc723e6ee8e8d0016bc687d,Vake,0,Wug,41,Teeve,75,comparative,Max,83,TEEVER,Value at the end of the trial
1572466369,2ada59a85745553b0092a01595a5143e,PennController,34,0,practice-Bed,NULL,PennController,33,_Trial_,End,1572466323391,5cc723e6ee8e8d0016bc687d,Vake,0,Wug,41,Teeve,75,comparative,Max,83,TEEVER,NULL
1572466369,2ada59a85745553b0092a01595a5143e,PennController,33,0,practice-Bed,NULL,PennController,32,_Trial_,Start,1572466323393,5cc723e6ee8e8d0016bc687d,Vake,0,Wug,41,Teeve,75,comparative,Mid,33,WUGGER,NULL
1572466369,2ada59a85745553b0092a01595a5143e,PennController,33,0,practice-Bed,NULL,PennController,32,_Header_,Start,1572466323393,5cc723e6ee8e8d0016bc687d,Vake,0,Wug,41,Teeve,75,comparative,Mid,33,WUGGER,NULL
1572466369,2ada59a85745553b0092a01595a5143e,PennController,33,0,practice-Bed,NULL,PennController,32,_Header_,End,1572466323393,5cc723e6ee8e8d0016bc687d,Vake,0,Wug,41,Teeve,75,comparative,Mid,33,WUGGER,NULL
1572466369,2ada59a85745553b0092a01595a5143e,PennController,33,0,practice-Bed,NULL,Scale,levels,Choice,43,1572466326398,5cc723e6ee8e8d0016bc687d,Vake,0,Wug,41,Teeve,75,comparative,Mid,33,WUGGER,NULL
1572466369,2ada59a85745553b0092a01595a5143e,PennController,33,0,practice-Bed,NULL,Var,errors,Final,0,1572466327628,5cc723e6ee8e8d0016bc687d,Vake,0,Wug,41,Teeve,75,comparative,Mid,33,WUGGER,Value at the end of the trial
1572466369,2ada59a85745553b0092a01595a5143e,PennController,33,0,practice-Bed,NULL,PennController,32,_Trial_,End,1572466327628,5cc723e6ee8e8d0016bc687d,Vake,0,Wug,41,Teeve,75,comparative,Mid,33,WUGGER,NULL
1572466369,2ada59a85745553b0092a01595a5143e,PennController,17,0,input-Bed,NULL,PennController,22,_Trial_,Start,1572466327630,5cc723e6ee8e8d0016bc687d,Vake,0,Wug,41,Teeve,75,comparative,Max,83,TEEVER,NULL
1572466369,2ada59a85745553b0092a01595a5143e,PennController,17,0,input-Bed,NULL,PennController,22,_Header_,Start,1572466327630,5cc723e6ee8e8d0016bc687d,Vake,0,Wug,41,Teeve,75,comparative,Max,83,TEEVER,NULL
1572466369,2ada59a85745553b0092a01595a5143e,PennController,17,0,input-Bed,NULL,PennController,22,_Header_,End,1572466327630,5cc723e6ee8e8d0016bc687d,Vake,0,Wug,41,Teeve,75,comparative,Max,83,TEEVER,NULL
1572466369,2ada59a85745553b0092a01595a5143e,PennController,17,0,input-Bed,NULL,Scale,levels,Choice,84,1572466332164,5cc723e6ee8e8d0016bc687d,Vake,0,Wug,41,Teeve,75,comparative,Max,83,TEEVER,NULL
1572466369,2ada59a85745553b0092a01595a5143e,PennController,17,0,input-Bed,NULL,Scale,levels,Choice,85,1572466332168,5cc723e6ee8e8d0016bc687d,Vake,0,Wug,41,Teeve,75,comparative,Max,83,TEEVER,NULL
1572466369,2ada59a85745553b0092a01595a5143e,PennController,17,0,input-Bed,NULL,Scale,levels,Choice,86,1572466332189,5cc723e6ee8e8d0016bc687d,Vake,0,Wug,41,Teeve,75,comparative,Max,83,TEEVER,NULL
1572466369,2ada59a85745553b0092a01595a5143e,PennController,17,0,input-Bed,NULL,Scale,levels,Choice,87,1572466332204,5cc723e6ee8e8d0016bc687d,Vake,0,Wug,41,Teeve,75,comparative,Max,83,TEEVER,NULL
1572466369,2ada59a85745553b0092a01595a5143e,PennController,17,0,input-Bed,NULL,Scale,levels,Choice,88,1572466332217,5cc723e6ee8e8d0016bc687d,Vake,0,Wug,41,Teeve,75,comparative,Max,83,TEEVER,NULL
1572466369,2ada59a85745553b0092a01595a5143e,PennController,17,0,input-Bed,NULL,Scale,levels,Choice,89,1572466332232,5cc723e6ee8e8d0016bc687d,Vake,0,Wug,41,Teeve,75,comparative,Max,83,TEEVER,NULL
1572466369,2ada59a85745553b0092a01595a5143e,PennController,17,0,input-Bed,NULL,Scale,levels,Choice,90,1572466332246,5cc723e6ee8e8d0016bc687d,Vake,0,Wug,41,Teeve,75,comparative,Max,83,TEEVER,NULL
1572466369,2ada59a85745553b0092a01595a5143e,PennController,17,0,input-Bed,NULL,Scale,levels,Choice,91,1572466332272,5cc723e6ee8e8d0016bc687d,Vake,0,Wug,41,Teeve,75,comparative,Max,83,TEEVER,NULL
1572466369,2ada59a85745553b0092a01595a5143e,PennController,17,0,input-Bed,NULL,Scale,levels,Choice,92,1572466332301,5cc723e6ee8e8d0016bc687d,Vake,0,Wug,41,Teeve,75,comparative,Max,83,TEEVER,NULL
1572466369,2ada59a85745553b0092a01595a5143e,PennController,17,0,input-Bed,NULL,Scale,levels,Choice,93,1572466332322,5cc723e6ee8e8d0016bc687d,Vake,0,Wug,41,Teeve,75,comparative,Max,83,TEEVER,NULL
1572466369,2ada59a85745553b0092a01595a5143e,PennController,17,0,input-Bed,NULL,Scale,levels,Choice,94,1572466332342,5cc723e6ee8e8d0016bc687d,Vake,0,Wug,41,Teeve,75,comparative,Max,83,TEEVER,NULL
1572466369,2ada59a85745553b0092a01595a5143e,PennController,17,0,input-Bed,NULL,Scale,levels,Choice,95,1572466332461,5cc723e6ee8e8d0016bc687d,Vake,0,Wug,41,Teeve,75,comparative,Max,83,TEEVER,NULL
1572466369,2ada59a85745553b0092a01595a5143e,PennController,17,0,input-Bed,NULL,Scale,levels,Choice,96,1572466332529,5cc723e6ee8e8d0016bc687d,Vake,0,Wug,41,Teeve,75,comparative,Max,83,TEEVER,NULL
1572466369,2ada59a85745553b0092a01595a5143e,PennController,17,0,input-Bed,NULL,PennController,22,_Trial_,End,1572466334058,5cc723e6ee8e8d0016bc687d,Vake,0,Wug,41,Teeve,75,comparative,Max,83,TEEVER,NULL
1572466369,2ada59a85745553b0092a01595a5143e,PennController,19,0,input-Bed,NULL,PennController,24,_Trial_,Start,1572466334059,5cc723e6ee8e8d0016bc687d,Vake,0,Wug,41,Teeve,75,excessive,Max,83,TOO TEEVE,NULL
1572466369,2ada59a85745553b0092a01595a5143e,PennController,19,0,input-Bed,NULL,PennController,24,_Header_,Start,1572466334059,5cc723e6ee8e8d0016bc687d,Vake,0,Wug,41,Teeve,75,excessive,Max,83,TOO TEEVE,NULL
1572466369,2ada59a85745553b0092a01595a5143e,PennController,19,0,input-Bed,NULL,PennController,24,_Header_,End,1572466334060,5cc723e6ee8e8d0016bc687d,Vake,0,Wug,41,Teeve,75,excessive,Max,83,TOO TEEVE,NULL
1572466369,2ada59a85745553b0092a01595a5143e,PennController,19,0,input-Bed,NULL,Scale,levels,Choice,84,1572466339960,5cc723e6ee8e8d0016bc687d,Vake,0,Wug,41,Teeve,75,excessive,Max,83,TOO TEEVE,NULL
1572466369,2ada59a85745553b0092a01595a5143e,PennController,19,0,input-Bed,NULL,Scale,levels,Choice,83,1572466339966,5cc723e6ee8e8d0016bc687d,Vake,0,Wug,41,Teeve,75,excessive,Max,83,TOO TEEVE,NULL
1572466369,2ada59a85745553b0092a01595a5143e,PennController,19,0,input-Bed,NULL,Scale,levels,Choice,82,1572466339981,5cc723e6ee8e8d0016bc687d,Vake,0,Wug,41,Teeve,75,excessive,Max,83,TOO TEEVE,NULL
1572466369,2ada59a85745553b0092a01595a5143e,PennController,19,0,input-Bed,NULL,Scale,levels,Choice,81,1572466340002,5cc723e6ee8e8d0016bc687d,Vake,0,Wug,41,Teeve,75,excessive,Max,83,TOO TEEVE,NULL
1572466369,2ada59a85745553b0092a01595a5143e,PennController,19,0,input-Bed,NULL,Scale,levels,Choice,80,1572466340009,5cc723e6ee8e8d0016bc687d,Vake,0,Wug,41,Teeve,75,excessive,Max,83,TOO TEEVE,NULL
1572466369,2ada59a85745553b0092a01595a5143e,PennController,19,0,input-Bed,NULL,Scale,levels,Choice,79,1572466340023,5cc723e6ee8e8d0016bc687d,Vake,0,Wug,41,Teeve,75,excessive,Max,83,TOO TEEVE,NULL
1572466369,2ada59a85745553b0092a01595a5143e,PennController,19,0,input-Bed,NULL,Scale,levels,Choice,78,1572466340030,5cc723e6ee8e8d0016bc687d,Vake,0,Wug,41,Teeve,75,excessive,Max,83,TOO TEEVE,NULL
1572466369,2ada59a85745553b0092a01595a5143e,PennController,19,0,input-Bed,NULL,Scale,levels,Choice,77,1572466340044,5cc723e6ee8e8d0016bc687d,Vake,0,Wug,41,Teeve,75,excessive,Max,83,TOO TEEVE,NULL
1572466369,2ada59a85745553b0092a01595a5143e,PennController,19,0,input-Bed,NULL,Scale,levels,Choice,76,1572466340051,5cc723e6ee8e8d0016bc687d,Vake,0,Wug,41,Teeve,75,excessive,Max,83,TOO TEEVE,NULL
1572466369,2ada59a85745553b0092a01595a5143e,PennController,19,0,input-Bed,NULL,Scale,levels,Choice,75,1572466340065,5cc723e6ee8e8d0016bc687d,Vake,0,Wug,41,Teeve,75,excessive,Max,83,TOO TEEVE,NULL
1572466369,2ada59a85745553b0092a01595a5143e,PennController,19,0,input-Bed,NULL,Scale,levels,Choice,74,1572466340072,5cc723e6ee8e8d0016bc687d,Vake,0,Wug,41,Teeve,75,excessive,Max,83,TOO TEEVE,NULL
1572466369,2ada59a85745553b0092a01595a5143e,PennController,19,0,input-Bed,NULL,Scale,levels,Choice,73,1572466340079,5cc723e6ee8e8d0016bc687d,Vake,0,Wug,41,Teeve,75,excessive,Max,83,TOO TEEVE,NULL
1572466369,2ada59a85745553b0092a01595a5143e,PennController,19,0,input-Bed,NULL,Scale,levels,Choice,72,1572466340093,5cc723e6ee8e8d0016bc687d,Vake,0,Wug,41,Teeve,75,excessive,Max,83,TOO TEEVE,NULL
1572466369,2ada59a85745553b0092a01595a5143e,PennController,19,0,input-Bed,NULL,Scale,levels,Choice,71,1572466340134,5cc723e6ee8e8d0016bc687d,Vake,0,Wug,41,Teeve,75,excessive,Max,83,TOO TEEVE,NULL
1572466369,2ada59a85745553b0092a01595a5143e,PennController,19,0,input-Bed,NULL,Scale,levels,Choice,70,1572466340161,5cc723e6ee8e8d0016bc687d,Vake,0,Wug,41,Teeve,75,excessive,Max,83,TOO TEEVE,NULL
1572466369,2ada59a85745553b0092a01595a5143e,PennController,19,0,input-Bed,NULL,Scale,levels,Choice,69,1572466340203,5cc723e6ee8e8d0016bc687d,Vake,0,Wug,41,Teeve,75,excessive,Max,83,TOO TEEVE,NULL
1572466369,2ada59a85745553b0092a01595a5143e,PennController,19,0,input-Bed,NULL,Scale,levels,Choice,68,1572466340223,5cc723e6ee8e8d0016bc687d,Vake,0,Wug,41,Teeve,75,excessive,Max,83,TOO TEEVE,NULL
1572466369,2ada59a85745553b0092a01595a5143e,PennController,19,0,input-Bed,NULL,Scale,levels,Choice,67,1572466340252,5cc723e6ee8e8d0016bc687d,Vake,0,Wug,41,Teeve,75,excessive,Max,83,TOO TEEVE,NULL
1572466369,2ada59a85745553b0092a01595a5143e,PennController,19,0,input-Bed,NULL,Scale,levels,Choice,66,1572466340273,5cc723e6ee8e8d0016bc687d,Vake,0,Wug,41,Teeve,75,excessive,Max,83,TOO TEEVE,NULL
1572466369,2ada59a85745553b0092a01595a5143e,PennController,19,0,input-Bed,NULL,Scale,levels,Choice,65,1572466340286,5cc723e6ee8e8d0016bc687d,Vake,0,Wug,41,Teeve,75,excessive,Max,83,TOO TEEVE,NULL
1572466369,2ada59a85745553b0092a01595a5143e,PennController,19,0,input-Bed,NULL,Scale,levels,Choice,64,1572466340294,5cc723e6ee8e8d0016bc687d,Vake,0,Wug,41,Teeve,75,excessive,Max,83,TOO TEEVE,NULL
1572466369,2ada59a85745553b0092a01595a5143e,PennController,19,0,input-Bed,NULL,Scale,levels,Choice,63,1572466340315,5cc723e6ee8e8d0016bc687d,Vake,0,Wug,41,Teeve,75,excessive,Max,83,TOO TEEVE,NULL
1572466369,2ada59a85745553b0092a01595a5143e,PennController,19,0,input-Bed,NULL,Scale,levels,Choice,62,1572466340398,5cc723e6ee8e8d0016bc687d,Vake,0,Wug,41,Teeve,75,excessive,Max,83,TOO TEEVE,NULL
1572466369,2ada59a85745553b0092a01595a5143e,PennController,19,0,input-Bed,NULL,PennController,24,_Trial_,End,1572466342419,5cc723e6ee8e8d0016bc687d,Vake,0,Wug,41,Teeve,75,excessive,Max,83,TOO TEEVE,NULL
1572466369,2ada59a85745553b0092a01595a5143e,PennController,16,0,input-Bed,NULL,PennController,21,_Trial_,Start,1572466342422,5cc723e6ee8e8d0016bc687d,Vake,0,Wug,41,Teeve,75,comparative,Mid,33,WUGGER,NULL
1572466369,2ada59a85745553b0092a01595a5143e,PennController,16,0,input-Bed,NULL,PennController,21,_Header_,Start,1572466342422,5cc723e6ee8e8d0016bc687d,Vake,0,Wug,41,Teeve,75,comparative,Mid,33,WUGGER,NULL
1572466369,2ada59a85745553b0092a01595a5143e,PennController,16,0,input-Bed,NULL,PennController,21,_Header_,End,1572466342422,5cc723e6ee8e8d0016bc687d,Vake,0,Wug,41,Teeve,75,comparative,Mid,33,WUGGER,NULL
1572466369,2ada59a85745553b0092a01595a5143e,PennController,16,0,input-Bed,NULL,Scale,levels,Choice,34,1572466348486,5cc723e6ee8e8d0016bc687d,Vake,0,Wug,41,Teeve,75,comparative,Mid,33,WUGGER,NULL
1572466369,2ada59a85745553b0092a01595a5143e,PennController,16,0,input-Bed,NULL,Scale,levels,Choice,35,1572466348510,5cc723e6ee8e8d0016bc687d,Vake,0,Wug,41,Teeve,75,comparative,Mid,33,WUGGER,NULL
1572466369,2ada59a85745553b0092a01595a5143e,PennController,16,0,input-Bed,NULL,Scale,levels,Choice,36,1572466348551,5cc723e6ee8e8d0016bc687d,Vake,0,Wug,41,Teeve,75,comparative,Mid,33,WUGGER,NULL
1572466369,2ada59a85745553b0092a01595a5143e,PennController,16,0,input-Bed,NULL,Scale,levels,Choice,37,1572466348606,5cc723e6ee8e8d0016bc687d,Vake,0,Wug,41,Teeve,75,comparative,Mid,33,WUGGER,NULL
1572466369,2ada59a85745553b0092a01595a5143e,PennController,16,0,input-Bed,NULL,Scale,levels,Choice,38,1572466348620,5cc723e6ee8e8d0016bc687d,Vake,0,Wug,41,Teeve,75,comparative,Mid,33,WUGGER,NULL
1572466369,2ada59a85745553b0092a01595a5143e,PennController,16,0,input-Bed,NULL,Scale,levels,Choice,39,1572466348628,5cc723e6ee8e8d0016bc687d,Vake,0,Wug,41,Teeve,75,comparative,Mid,33,WUGGER,NULL
1572466369,2ada59a85745553b0092a01595a5143e,PennController,16,0,input-Bed,NULL,Scale,levels,Choice,40,1572466348647,5cc723e6ee8e8d0016bc687d,Vake,0,Wug,41,Teeve,75,comparative,Mid,33,WUGGER,NULL
1572466369,2ada59a85745553b0092a01595a5143e,PennController,16,0,input-Bed,NULL,Scale,levels,Choice,41,1572466348970,5cc723e6ee8e8d0016bc687d,Vake,0,Wug,41,Teeve,75,comparative,Mid,33,WUGGER,NULL
1572466369,2ada59a85745553b0092a01595a5143e,PennController,16,0,input-Bed,NULL,Scale,levels,Choice,42,1572466348988,5cc723e6ee8e8d0016bc687d,Vake,0,Wug,41,Teeve,75,comparative,Mid,33,WUGGER,NULL
1572466369,2ada59a85745553b0092a01595a5143e,PennController,16,0,input-Bed,NULL,Scale,levels,Choice,43,1572466348995,5cc723e6ee8e8d0016bc687d,Vake,0,Wug,41,Teeve,75,comparative,Mid,33,WUGGER,NULL
1572466369,2ada59a85745553b0092a01595a5143e,PennController,16,0,input-Bed,NULL,PennController,21,_Trial_,End,1572466350572,5cc723e6ee8e8d0016bc687d,Vake,0,Wug,41,Teeve,75,comparative,Mid,33,WUGGER,NULL
1572466369,2ada59a85745553b0092a01595a5143e,PennController,18,0,input-Bed,NULL,PennController,23,_Trial_,Start,1572466350574,5cc723e6ee8e8d0016bc687d,Vake,0,Wug,41,Teeve,75,excessive,Mid,33,TOO WUG,NULL
1572466369,2ada59a85745553b0092a01595a5143e,PennController,18,0,input-Bed,NULL,PennController,23,_Header_,Start,1572466350574,5cc723e6ee8e8d0016bc687d,Vake,0,Wug,41,Teeve,75,excessive,Mid,33,TOO WUG,NULL
1572466369,2ada59a85745553b0092a01595a5143e,PennController,18,0,input-Bed,NULL,PennController,23,_Header_,End,1572466350574,5cc723e6ee8e8d0016bc687d,Vake,0,Wug,41,Teeve,75,excessive,Mid,33,TOO WUG,NULL
1572466369,2ada59a85745553b0092a01595a5143e,PennController,18,0,input-Bed,NULL,Scale,levels,Choice,34,1572466354151,5cc723e6ee8e8d0016bc687d,Vake,0,Wug,41,Teeve,75,excessive,Mid,33,TOO WUG,NULL
1572466369,2ada59a85745553b0092a01595a5143e,PennController,18,0,input-Bed,NULL,Scale,levels,Choice,33,1572466354176,5cc723e6ee8e8d0016bc687d,Vake,0,Wug,41,Teeve,75,excessive,Mid,33,TOO WUG,NULL
1572466369,2ada59a85745553b0092a01595a5143e,PennController,18,0,input-Bed,NULL,Scale,levels,Choice,32,1572466354189,5cc723e6ee8e8d0016bc687d,Vake,0,Wug,41,Teeve,75,excessive,Mid,33,TOO WUG,NULL
1572466369,2ada59a85745553b0092a01595a5143e,PennController,18,0,input-Bed,NULL,Scale,levels,Choice,31,1572466354218,5cc723e6ee8e8d0016bc687d,Vake,0,Wug,41,Teeve,75,excessive,Mid,33,TOO WUG,NULL
1572466369,2ada59a85745553b0092a01595a5143e,PennController,18,0,input-Bed,NULL,Scale,levels,Choice,30,1572466354239,5cc723e6ee8e8d0016bc687d,Vake,0,Wug,41,Teeve,75,excessive,Mid,33,TOO WUG,NULL
1572466369,2ada59a85745553b0092a01595a5143e,PennController,18,0,input-Bed,NULL,Scale,levels,Choice,29,1572466354260,5cc723e6ee8e8d0016bc687d,Vake,0,Wug,41,Teeve,75,excessive,Mid,33,TOO WUG,NULL
1572466369,2ada59a85745553b0092a01595a5143e,PennController,18,0,input-Bed,NULL,Scale,levels,Choice,28,1572466354288,5cc723e6ee8e8d0016bc687d,Vake,0,Wug,41,Teeve,75,excessive,Mid,33,TOO WUG,NULL
1572466369,2ada59a85745553b0092a01595a5143e,PennController,18,0,input-Bed,NULL,Scale,levels,Choice,27,1572466354321,5cc723e6ee8e8d0016bc687d,Vake,0,Wug,41,Teeve,75,excessive,Mid,33,TOO WUG,NULL
1572466369,2ada59a85745553b0092a01595a5143e,PennController,18,0,input-Bed,NULL,Scale,levels,Choice,26,1572466354383,5cc723e6ee8e8d0016bc687d,Vake,0,Wug,41,Teeve,75,excessive,Mid,33,TOO WUG,NULL
1572466369,2ada59a85745553b0092a01595a5143e,PennController,18,0,input-Bed,NULL,Scale,levels,Choice,25,1572466354406,5cc723e6ee8e8d0016bc687d,Vake,0,Wug,41,Teeve,75,excessive,Mid,33,TOO WUG,NULL
1572466369,2ada59a85745553b0092a01595a5143e,PennController,18,0,input-Bed,NULL,Scale,levels,Choice,24,1572466354420,5cc723e6ee8e8d0016bc687d,Vake,0,Wug,41,Teeve,75,excessive,Mid,33,TOO WUG,NULL
1572466369,2ada59a85745553b0092a01595a5143e,PennController,18,0,input-Bed,NULL,Scale,levels,Choice,23,1572466354440,5cc723e6ee8e8d0016bc687d,Vake,0,Wug,41,Teeve,75,excessive,Mid,33,TOO WUG,NULL
1572466369,2ada59a85745553b0092a01595a5143e,PennController,18,0,input-Bed,NULL,Scale,levels,Choice,22,1572466354454,5cc723e6ee8e8d0016bc687d,Vake,0,Wug,41,Teeve,75,excessive,Mid,33,TOO WUG,NULL
1572466369,2ada59a85745553b0092a01595a5143e,PennController,18,0,input-Bed,NULL,Scale,levels,Choice,21,1572466354502,5cc723e6ee8e8d0016bc687d,Vake,0,Wug,41,Teeve,75,excessive,Mid,33,TOO WUG,NULL
1572466369,2ada59a85745553b0092a01595a5143e,PennController,18,0,input-Bed,NULL,Scale,levels,Choice,20,1572466354531,5cc723e6ee8e8d0016bc687d,Vake,0,Wug,41,Teeve,75,excessive,Mid,33,TOO WUG,NULL
1572466369,2ada59a85745553b0092a01595a5143e,PennController,18,0,input-Bed,NULL,Scale,levels,Choice,19,1572466354551,5cc723e6ee8e8d0016bc687d,Vake,0,Wug,41,Teeve,75,excessive,Mid,33,TOO WUG,NULL
1572466369,2ada59a85745553b0092a01595a5143e,PennController,18,0,input-Bed,NULL,Scale,levels,Choice,18,1572466354675,5cc723e6ee8e8d0016bc687d,Vake,0,Wug,41,Teeve,75,excessive,Mid,33,TOO WUG,NULL
1572466369,2ada59a85745553b0092a01595a5143e,PennController,18,0,input-Bed,NULL,PennController,23,_Trial_,End,1572466356309,5cc723e6ee8e8d0016bc687d,Vake,0,Wug,41,Teeve,75,excessive,Mid,33,TOO WUG,NULL
# Columns below this comment are as follows:
# 1. Time results were received.
# 2. MD5 hash of participant's IP address.
# 3. Controller name.
# 4. Item number.
# 5. Element number.
# 6. Type.
# 7. Group.
# 8. PennElementType.
# 9. PennElementName.
# 10. Parameter.
# 11. Value.
# 12. EventTime.
# 13. id.
# 14. Comments.
1572466369,2ada59a85745553b0092a01595a5143e,PennController,23,0,feedback,NULL,PennController,3,_Trial_,Start,1572466356310,5cc723e6ee8e8d0016bc687d,NULL
1572466369,2ada59a85745553b0092a01595a5143e,PennController,23,0,feedback,NULL,PennController,3,_Header_,Start,1572466356310,5cc723e6ee8e8d0016bc687d,NULL
1572466369,2ada59a85745553b0092a01595a5143e,PennController,23,0,feedback,NULL,PennController,3,_Header_,End,1572466356311,5cc723e6ee8e8d0016bc687d,NULL
1572466369,2ada59a85745553b0092a01595a5143e,PennController,23,0,feedback,NULL,Scale,sound,Choice,on,1572466358471,5cc723e6ee8e8d0016bc687d,NULL
1572466369,2ada59a85745553b0092a01595a5143e,PennController,23,0,feedback,NULL,TextInput,feedback,Final,,1572466362923,5cc723e6ee8e8d0016bc687d,NULL
1572466369,2ada59a85745553b0092a01595a5143e,PennController,23,0,feedback,NULL,PennController,3,_Trial_,End,1572466362923,5cc723e6ee8e8d0016bc687d,NULL
#
# Results on Wednesday October 30 2019 20:15:36 UTC.
# USER AGENT: Mozilla/5.0 (Macintosh; Intel Mac OS X 10_14_6) AppleWebKit/537.36 (KHTML, like Gecko) Chrome/78.0.3904.70 Safari/537.36
# Design number was non-random = 36
#
# Columns below this comment are as follows:
# 1. Time results were received.
# 2. MD5 hash of participant's IP address.
# 3. Controller name.
# 4. Item number.
# 5. Element number.
# 6. Type.
# 7. Group.
# 8. PennElementType.
# 9. PennElementName.
# 10. Parameter.
# 11. Value.
# 12. EventTime.
# 13. Comments.
1572466536,912e1efab31aac60a23071ad5df3be9c,PennController,20,0,instructions,NULL,PennController,0,_Trial_,Start,1572466015488,NULL
1572466536,912e1efab31aac60a23071ad5df3be9c,PennController,20,0,instructions,NULL,PennController,0,_Header_,Start,1572466015488,NULL
1572466536,912e1efab31aac60a23071ad5df3be9c,PennController,20,0,instructions,NULL,PennController,0,_Header_,End,1572466015495,NULL
1572466536,912e1efab31aac60a23071ad5df3be9c,PennController,20,0,instructions,NULL,PennController,0,_Trial_,End,1572466017873,NULL
# Columns below this comment are as follows:
# 1. Time results were received.
# 2. MD5 hash of participant's IP address.
# 3. Controller name.
# 4. Item number.
# 5. Element number.
# 6. Type.
# 7. Group.
# 8. PennElementType.
# 9. PennElementName.
# 10. Parameter.
# 11. Value.
# 12. EventTime.
# 13. id.
# 14. Comments.
1572466536,912e1efab31aac60a23071ad5df3be9c,PennController,21,0,instructions,NULL,PennController,1,_Trial_,Start,1572466017878,5751b9a8702d130006285f79,NULL
1572466536,912e1efab31aac60a23071ad5df3be9c,PennController,21,0,instructions,NULL,PennController,1,_Header_,Start,1572466017878,5751b9a8702d130006285f79,NULL
1572466536,912e1efab31aac60a23071ad5df3be9c,PennController,21,0,instructions,NULL,PennController,1,_Header_,End,1572466017879,5751b9a8702d130006285f79,NULL
1572466536,912e1efab31aac60a23071ad5df3be9c,PennController,21,0,instructions,NULL,Scale,levels,Choice,NA,Never,5751b9a8702d130006285f79,No selection happened
1572466536,912e1efab31aac60a23071ad5df3be9c,PennController,21,0,instructions,NULL,PennController,1,_Trial_,End,1572466047188,5751b9a8702d130006285f79,NULL
1572466536,912e1efab31aac60a23071ad5df3be9c,PennController,22,0,instructions,NULL,PennController,2,_Trial_,Start,1572466047191,5751b9a8702d130006285f79,NULL
1572466536,912e1efab31aac60a23071ad5df3be9c,PennController,22,0,instructions,NULL,PennController,2,_Header_,Start,1572466047191,5751b9a8702d130006285f79,NULL
1572466536,912e1efab31aac60a23071ad5df3be9c,PennController,22,0,instructions,NULL,PennController,2,_Header_,End,1572466047192,5751b9a8702d130006285f79,NULL
1572466536,912e1efab31aac60a23071ad5df3be9c,PennController,22,0,instructions,NULL,PennController,2,_Trial_,End,1572466066084,5751b9a8702d130006285f79,NULL
1572466536,912e1efab31aac60a23071ad5df3be9c,PennController,26,0,intro,NULL,PennController,25,_Trial_,Start,1572466066087,5751b9a8702d130006285f79,NULL
1572466536,912e1efab31aac60a23071ad5df3be9c,PennController,26,0,intro,NULL,PennController,25,_Header_,Start,1572466066087,5751b9a8702d130006285f79,NULL
1572466536,912e1efab31aac60a23071ad5df3be9c,PennController,26,0,intro,NULL,PennController,25,_Header_,End,1572466066088,5751b9a8702d130006285f79,NULL
1572466536,912e1efab31aac60a23071ad5df3be9c,PennController,26,0,intro,NULL,PennController,25,_Trial_,End,1572466075297,5751b9a8702d130006285f79,NULL
# Columns below this comment are as follows:
# 1. Time results were received.
# 2. MD5 hash of participant's IP address.
# 3. Controller name.
# 4. Item number.
# 5. Element number.
# 6. Type.
# 7. Group.
# 8. PennElementType.
# 9. PennElementName.
# 10. Parameter.
# 11. Value.
# 12. EventTime.
# 13. id.
# 14. MinAdj.
# 15. MinLevel.
# 16. MidAdj.
# 17. MidLevel.
# 18. MaxAdj.
# 19. MaxLevel.
# 20. Form.
# 21. Force.
# 22. Level.
# 23. Tested.
# 24. Comments.
1572466536,912e1efab31aac60a23071ad5df3be9c,PennController,0,0,demo-Bathtub,NULL,PennController,5,_Trial_,Start,1572466075299,5751b9a8702d130006285f79,Cold,25,Warm,58,Hot,75,comparative,Mid,66,WARMER,NULL
1572466536,912e1efab31aac60a23071ad5df3be9c,PennController,0,0,demo-Bathtub,NULL,PennController,5,_Header_,Start,1572466075299,5751b9a8702d130006285f79,Cold,25,Warm,58,Hot,75,comparative,Mid,66,WARMER,NULL
1572466536,912e1efab31aac60a23071ad5df3be9c,PennController,0,0,demo-Bathtub,NULL,PennController,5,_Header_,End,1572466075300,5751b9a8702d130006285f79,Cold,25,Warm,58,Hot,75,comparative,Mid,66,WARMER,NULL
1572466536,912e1efab31aac60a23071ad5df3be9c,PennController,0,0,demo-Bathtub,NULL,Scale,levels,Choice,NA,Never,5751b9a8702d130006285f79,Cold,25,Warm,58,Hot,75,comparative,Mid,66,WARMER,No selection happened
1572466536,912e1efab31aac60a23071ad5df3be9c,PennController,0,0,demo-Bathtub,NULL,PennController,5,_Trial_,End,1572466099890,5751b9a8702d130006285f79,Cold,25,Warm,58,Hot,75,comparative,Mid,66,WARMER,NULL
1572466536,912e1efab31aac60a23071ad5df3be9c,PennController,27,0,practice-Bathtub,NULL,PennController,26,_Trial_,Start,1572466099893,5751b9a8702d130006285f79,Cold,25,Warm,58,Hot,75,comparative,Mid,66,WARMER,NULL
1572466536,912e1efab31aac60a23071ad5df3be9c,PennController,27,0,practice-Bathtub,NULL,PennController,26,_Header_,Start,1572466099893,5751b9a8702d130006285f79,Cold,25,Warm,58,Hot,75,comparative,Mid,66,WARMER,NULL
1572466536,912e1efab31aac60a23071ad5df3be9c,PennController,27,0,practice-Bathtub,NULL,PennController,26,_Header_,End,1572466099894,5751b9a8702d130006285f79,Cold,25,Warm,58,Hot,75,comparative,Mid,66,WARMER,NULL
1572466536,912e1efab31aac60a23071ad5df3be9c,PennController,27,0,practice-Bathtub,NULL,Scale,levels,Choice,60,1572466130334,5751b9a8702d130006285f79,Cold,25,Warm,58,Hot,75,comparative,Mid,66,WARMER,NULL
1572466536,912e1efab31aac60a23071ad5df3be9c,PennController,27,0,practice-Bathtub,NULL,Var,errors,Final,3,1572466133210,5751b9a8702d130006285f79,Cold,25,Warm,58,Hot,75,comparative,Mid,66,WARMER,Value at the end of the trial
1572466536,912e1efab31aac60a23071ad5df3be9c,PennController,27,0,practice-Bathtub,NULL,PennController,26,_Trial_,End,1572466133210,5751b9a8702d130006285f79,Cold,25,Warm,58,Hot,75,comparative,Mid,66,WARMER,NULL
1572466536,912e1efab31aac60a23071ad5df3be9c,PennController,28,0,practice-Bathtub,NULL,PennController,27,_Trial_,Start,1572466133214,5751b9a8702d130006285f79,Cold,25,Warm,58,Hot,75,comparative,Max,83,HOTTER,NULL
1572466536,912e1efab31aac60a23071ad5df3be9c,PennController,28,0,practice-Bathtub,NULL,PennController,27,_Header_,Start,1572466133214,5751b9a8702d130006285f79,Cold,25,Warm,58,Hot,75,comparative,Max,83,HOTTER,NULL
1572466536,912e1efab31aac60a23071ad5df3be9c,PennController,28,0,practice-Bathtub,NULL,PennController,27,_Header_,End,1572466133215,5751b9a8702d130006285f79,Cold,25,Warm,58,Hot,75,comparative,Max,83,HOTTER,NULL
1572466536,912e1efab31aac60a23071ad5df3be9c,PennController,28,0,practice-Bathtub,NULL,Scale,levels,Choice,77,1572466150396,5751b9a8702d130006285f79,Cold,25,Warm,58,Hot,75,comparative,Max,83,HOTTER,NULL
1572466536,912e1efab31aac60a23071ad5df3be9c,PennController,28,0,practice-Bathtub,NULL,Var,errors,Final,2,1572466151882,5751b9a8702d130006285f79,Cold,25,Warm,58,Hot,75,comparative,Max,83,HOTTER,Value at the end of the trial
1572466536,912e1efab31aac60a23071ad5df3be9c,PennController,28,0,practice-Bathtub,NULL,PennController,27,_Trial_,End,1572466151882,5751b9a8702d130006285f79,Cold,25,Warm,58,Hot,75,comparative,Max,83,HOTTER,NULL
1572466536,912e1efab31aac60a23071ad5df3be9c,PennController,27,0,practice-Bathtub,NULL,PennController,26,_Trial_,Start,1572466151887,5751b9a8702d130006285f79,Cold,25,Warm,58,Hot,75,comparative,Mid,66,WARMER,NULL
1572466536,912e1efab31aac60a23071ad5df3be9c,PennController,27,0,practice-Bathtub,NULL,PennController,26,_Header_,Start,1572466151887,5751b9a8702d130006285f79,Cold,25,Warm,58,Hot,75,comparative,Mid,66,WARMER,NULL
1572466536,912e1efab31aac60a23071ad5df3be9c,PennController,27,0,practice-Bathtub,NULL,PennController,26,_Header_,End,1572466151887,5751b9a8702d130006285f79,Cold,25,Warm,58,Hot,75,comparative,Mid,66,WARMER,NULL
1572466536,912e1efab31aac60a23071ad5df3be9c,PennController,27,0,practice-Bathtub,NULL,Scale,levels,Choice,60,1572466157066,5751b9a8702d130006285f79,Cold,25,Warm,58,Hot,75,comparative,Mid,66,WARMER,NULL
1572466536,912e1efab31aac60a23071ad5df3be9c,PennController,27,0,practice-Bathtub,NULL,Var,errors,Final,0,1572466160212,5751b9a8702d130006285f79,Cold,25,Warm,58,Hot,75,comparative,Mid,66,WARMER,Value at the end of the trial
1572466536,912e1efab31aac60a23071ad5df3be9c,PennController,27,0,practice-Bathtub,NULL,PennController,26,_Trial_,End,1572466160212,5751b9a8702d130006285f79,Cold,25,Warm,58,Hot,75,comparative,Mid,66,WARMER,NULL
1572466536,912e1efab31aac60a23071ad5df3be9c,PennController,28,0,practice-Bathtub,NULL,PennController,27,_Trial_,Start,1572466160218,5751b9a8702d130006285f79,Cold,25,Warm,58,Hot,75,comparative,Max,83,HOTTER,NULL
1572466536,912e1efab31aac60a23071ad5df3be9c,PennController,28,0,practice-Bathtub,NULL,PennController,27,_Header_,Start,1572466160218,5751b9a8702d130006285f79,Cold,25,Warm,58,Hot,75,comparative,Max,83,HOTTER,NULL
1572466536,912e1efab31aac60a23071ad5df3be9c,PennController,28,0,practice-Bathtub,NULL,PennController,27,_Header_,End,1572466160218,5751b9a8702d130006285f79,Cold,25,Warm,58,Hot,75,comparative,Max,83,HOTTER,NULL
1572466536,912e1efab31aac60a23071ad5df3be9c,PennController,28,0,practice-Bathtub,NULL,Scale,levels,Choice,77,1572466184727,5751b9a8702d130006285f79,Cold,25,Warm,58,Hot,75,comparative,Max,83,HOTTER,NULL
